pairs.thisRepN,pairs.thisTrialN,pairs.thisN,pairs.thisIndex,blocks.thisRepN,blocks.thisTrialN,blocks.thisN,blocks.thisIndex,trials.thisRepN,trials.thisTrialN,trials.thisN,trials.thisIndex,thisRow.t,notes,initialisation.started,initialisation.stopped,set_match_pair.started,set_match_pair.stopped,learn_me.started,message_to_pp.started,text_label.started,image_shape.started,dismiss_learn.started,learn_me.stopped,dismiss_learn.keys,dismiss_learn.rt,dismiss_learn.duration,set_counters.started,set_counters.stopped,set_trial_type_list.started,set_trial_type_list.stopped,increment_trial_count.started,increment_trial_count.stopped,choose_mismatch_pair.started,match_label,match_shape,mismatch_label,mismatch_shape,choose_mismatch_pair.stopped,choose_trial_type.started,trial_type,trial_count,trial_label,trial_shape,choose_trial_type.stopped,fix_cross.started,text_4.started,text_4.stopped,fix_cross.stopped,put.started,put_label.started,put_shape.started,trial_response.started,debug_put.started,put.stopped,trial_response.keys,trial_response.rt,trial_response.duration,eval.started,acc,eval.stopped,rest_period.started,take_rest.started,rest_period_kb.started,rest_period.stopped,rest_period_kb.keys,rest_period_kb.rt,rest_period_kb.duration,participant,session,date,expName,psychopyVersion,frameRate,expStart,
0,0,0,0,0,0,0,0,0,0,0,0,0.8385950000001685,,0.006243799999992916,0.006755500000053871,0.007446399999935238,0.00768900000002759,0.007705600000008417,0.06649670000024344,0.06649670000024344,0.06649670000024344,0.06649670000024344,0.8238486000000194,space,0.7481508000000758,None,0.8258068000000094,0.8264256000002206,0.8264543000000231,0.8270864000000984,0.8285276999999951,0.8291014000001269,0.8291302000002361,air,T.bmp,earth,S.bmp,0.8297440999999708,0.8297729999999319,match,0,air,T.bmp,0.8303458000000319,0.8303753000000142,0.8385950000001685,0.95475179999994,0.9231272000001809,0.9231554000002689,0.95475179999994,0.95475179999994,0.95475179999994,0.95475179999994,5.501106700000037,m,4.535746000000017,None,5.502891200000249,1,5.503498099999888,,,,,,,,207844,001,2023-11-22_19h48.17.643,ala-gemma,2023.2.3,60.09810414525144,2023-11-22 19h48.23.533169 +0000,
0,0,0,0,0,0,0,0,1,0,1,0,5.516264899999896,,,,,,,,,,,,,,,,,,,5.504506700000093,5.505077700000129,5.505105700000058,air,T.bmp,air,S.bmp,5.505720099999962,5.505748999999923,mismatch,1,air,S.bmp,5.5064102000001185,5.5064486999999644,5.516264899999896,5.6320105999998304,5.60009029999992,5.600118100000145,5.6320105999998304,5.6320105999998304,5.6320105999998304,5.6320105999998304,6.001968800000213,m,0.3663683999998284,None,6.003773299999921,0,6.004530499999873,,,,,,,,207844,001,2023-11-22_19h48.17.643,ala-gemma,2023.2.3,60.09810414525144,2023-11-22 19h48.23.533169 +0000,
0,0,0,0,0,0,0,0,2,0,2,0,6.015328100000261,,,,,,,,,,,,,,,,,,,6.005796100000225,6.0065496000001986,6.006585399999949,air,T.bmp,air,C.bmp,6.007341800000177,6.007377700000234,mismatch,2,air,C.bmp,6.00826619999998,6.0083024999999,6.015328100000261,6.131512599999951,6.099845400000049,6.099880300000223,6.131512599999951,6.131512599999951,6.131512599999951,6.131512599999951,6.367175400000178,m,0.2312077000001409,None,6.368847300000198,0,6.369576399999914,,,,,,,,207844,001,2023-11-22_19h48.17.643,ala-gemma,2023.2.3,60.09810414525144,2023-11-22 19h48.23.533169 +0000,
0,0,0,0,0,0,0,0,3,0,3,0,6.381824999999935,,,,,,,,,,,,,,,,,,,6.3707979999999225,6.371529600000031,6.371564699999908,air,T.bmp,earth,T.bmp,6.372415799999999,6.372451400000045,match,3,air,T.bmp,6.373177500000111,6.373214000000189,6.381824999999935,6.497566600000027,6.466039500000079,6.4660735000002205,6.497566600000027,6.497566600000027,6.497566600000027,6.497566600000027,6.732569100000092,m,0.23130609999998342,None,6.73376159999998,1,6.734309400000257,,,,,,,,207844,001,2023-11-22_19h48.17.643,ala-gemma,2023.2.3,60.09810414525144,2023-11-22 19h48.23.533169 +0000,
0,0,0,0,0,0,0,0,4,0,4,0,6.747510000000148,,,,,,,,,,,,,,,,,,,6.735200800000257,6.735807699999896,6.735833300000195,air,T.bmp,sky,C.bmp,6.7363970000001245,6.73642319999999,match,4,air,T.bmp,6.737025899999935,6.737057299999833,6.747510000000148,6.8637447999999495,6.831516400000055,6.8315434999999525,6.8637447999999495,6.8637447999999495,6.8637447999999495,6.8637447999999495,7.082055599999876,m,0.200976399999945,None,7.083369999999832,1,7.0839592000002085,,,,,,,,207844,001,2023-11-22_19h48.17.643,ala-gemma,2023.2.3,60.09810414525144,2023-11-22 19h48.23.533169 +0000,
0,0,0,0,0,0,0,0,5,0,5,0,7.097342500000195,,,,,,,,,,,,,,,,,,,7.084933600000113,7.085509500000171,7.085536999999931,air,T.bmp,earth,T.bmp,7.0861251000001175,7.086153600000216,mismatch,5,earth,T.bmp,7.086763300000257,7.086791400000038,7.097342500000195,7.213598899999852,7.181499799999983,7.181527199999891,7.213598899999852,7.213598899999852,7.213598899999852,7.213598899999852,7.431398600000193,m,0.20455539999966277,None,7.4326922000000195,0,7.43330909999986,,,,,,,,207844,001,2023-11-22_19h48.17.643,ala-gemma,2023.2.3,60.09810414525144,2023-11-22 19h48.23.533169 +0000,
0,0,0,0,0,0,0,0,6,0,6,0,7.446404599999823,,,,,,,,,,,,,,,,,,,7.434268200000133,7.434936799999832,7.434964399999899,air,T.bmp,earth,C.bmp,7.435564100000192,7.43559200000027,mismatch,6,earth,C.bmp,7.436171800000011,7.436199900000247,7.446404599999823,7.563056899999992,7.5325526999999965,7.53259960000014,7.563056899999992,7.563056899999992,7.563056899999992,7.563056899999992,7.780987300000106,m,0.21168370000032155,None,7.782306800000242,0,7.782850399999916,,,,,,,,207844,001,2023-11-22_19h48.17.643,ala-gemma,2023.2.3,60.09810414525144,2023-11-22 19h48.23.533169 +0000,
0,0,0,0,0,0,0,0,7,0,7,0,7.795835299999908,,,,,,,,,,,,,,,,,,,7.783824900000127,7.784425199999987,7.784452599999895,air,T.bmp,earth,T.bmp,7.785058100000242,7.785085900000013,mismatch,7,earth,T.bmp,7.785683000000063,7.785711500000161,7.795835299999908,7.912809700000253,7.882219000000077,7.882266800000252,7.912809700000253,7.912809700000253,7.912809700000253,7.912809700000253,8.114964599999894,m,0.19596799999999348,None,8.116495000000214,0,8.117164600000251,,,,,,,,207844,001,2023-11-22_19h48.17.643,ala-gemma,2023.2.3,60.09810414525144,2023-11-22 19h48.23.533169 +0000,
0,0,0,0,0,0,0,0,8,0,8,0,8.12950839999985,,,,,,,,,,,,,,,,,,,8.118308900000102,8.119130099999893,8.119162100000267,air,T.bmp,sky,S.bmp,8.119876700000077,8.11990969999988,mismatch,8,sky,S.bmp,8.12060960000008,8.120643100000052,8.12950839999985,8.245304300000043,8.213427799999863,8.213459999999941,8.245304300000043,8.245304300000043,8.245304300000043,8.245304300000043,8.497833700000228,m,0.24386440000034781,None,8.499366999999893,0,8.500058999999965,,,,,,,,207844,001,2023-11-22_19h48.17.643,ala-gemma,2023.2.3,60.09810414525144,2023-11-22 19h48.23.533169 +0000,
0,0,0,0,0,0,0,0,9,0,9,0,8.512701200000265,,,,,,,,,,,,,,,,,,,8.50121080000008,8.501977200000056,8.502009799999996,air,T.bmp,air,S.bmp,8.502744800000073,8.502777400000014,match,9,air,T.bmp,8.50345520000019,8.503487899999982,8.512701200000265,8.62840499999993,8.59673980000025,8.59677240000019,8.62840499999993,8.62840499999993,8.62840499999993,8.62840499999993,8.846938099999988,m,0.2152249999999185,None,8.84843170000022,1,8.849116800000047,,,,,,,,207844,001,2023-11-22_19h48.17.643,ala-gemma,2023.2.3,60.09810414525144,2023-11-22 19h48.23.533169 +0000,
0,0,0,0,0,0,0,0,10,0,10,0,8.862267800000154,,,,,,,,,,,,,,,,,,,8.850231200000053,8.850911399999859,8.850944100000106,air,T.bmp,sky,C.bmp,8.85158279999996,8.85161670000025,match,10,air,T.bmp,8.852316900000005,8.852350600000136,8.862267800000154,8.977812900000117,8.946005100000093,8.946035999999822,8.977812900000117,8.977812900000117,8.977812900000117,8.977812900000117,9.180503099999896,m,0.19882270000016433,None,9.182016600000225,1,9.18270369999982,,,,,,,,207844,001,2023-11-22_19h48.17.643,ala-gemma,2023.2.3,60.09810414525144,2023-11-22 19h48.23.533169 +0000,
0,0,0,0,0,0,0,0,11,0,11,0,9.194975700000214,,,,,,,,,,,,,,,,,,,9.183814200000143,9.184493000000202,9.184525499999836,air,T.bmp,air,C.bmp,9.185224100000141,9.185257799999818,match,11,air,T.bmp,9.18597839999984,9.186011400000098,9.194975700000214,9.3108900000002,9.279591299999993,9.279623400000219,9.3108900000002,9.3108900000002,9.3108900000002,9.3108900000002,9.496707100000094,m,0.17979000000013912,None,9.49811499999987,1,9.498756800000137,,,,,,,,207844,001,2023-11-22_19h48.17.643,ala-gemma,2023.2.3,60.09810414525144,2023-11-22 19h48.23.533169 +0000,
0,0,0,0,0,0,0,0,12,0,12,0,9.511323600000196,,,,,,,,,,,,,,,,,,,9.499778400000196,9.500422999999955,9.500453200000265,air,T.bmp,earth,C.bmp,9.50107620000017,9.5011070999999,mismatch,12,earth,C.bmp,9.501754500000061,9.501785700000255,9.511323600000196,9.627072400000088,9.594942600000195,9.59497280000005,9.627072400000088,9.627072400000088,9.627072400000088,9.627072400000088,9.846492699999999,m,0.20766779999985374,None,9.84835639999983,0,9.849274499999865,,,,,,,,207844,001,2023-11-22_19h48.17.643,ala-gemma,2023.2.3,60.09810414525144,2023-11-22 19h48.23.533169 +0000,
0,0,0,0,0,0,0,0,13,0,13,0,9.860632500000065,,,,,,,,,,,,,,,,,,,9.85067590000017,9.851528900000176,9.851569400000244,air,T.bmp,sky,T.bmp,9.852393699999993,9.852435499999956,mismatch,13,sky,T.bmp,9.853283400000237,9.85332440000002,9.860632500000065,9.976667500000076,9.945391900000232,9.945430000000215,9.976667500000076,9.976667500000076,9.976667500000076,9.976667500000076,10.178703900000073,m,0.1881797999999435,None,10.1802146,0,10.180934500000149,,,,,,,,207844,001,2023-11-22_19h48.17.643,ala-gemma,2023.2.3,60.09810414525144,2023-11-22 19h48.23.533169 +0000,
0,0,0,0,0,0,0,0,14,0,14,0,10.193762200000037,,,,,,,,,,,,,,,,,,,10.1820459999999,10.182732600000236,10.182767600000261,air,T.bmp,sky,T.bmp,10.183466299999964,10.183499400000073,mismatch,14,sky,T.bmp,10.184267600000112,10.184300500000063,10.193762200000037,10.310718700000052,10.277928099999826,10.27798010000015,10.310718700000052,10.310718700000052,10.310718700000052,10.310718700000052,10.511109300000044,m,0.18679290000000037,None,10.512658099999953,0,10.513382399999955,,,,,,,,207844,001,2023-11-22_19h48.17.643,ala-gemma,2023.2.3,60.09810414525144,2023-11-22 19h48.23.533169 +0000,
0,0,0,0,0,0,0,0,15,0,15,0,10.526534999999967,,,,,,,,,,,,,,,,,,,10.51450530000011,10.515203400000246,10.515236300000197,air,T.bmp,air,C.bmp,10.51593580000008,10.5159692000002,mismatch,15,air,C.bmp,10.516665799999828,10.516699300000255,10.526534999999967,10.642189099999996,10.610547900000256,10.610580999999911,10.642189099999996,10.642189099999996,10.642189099999996,10.642189099999996,10.843886699999985,m,0.1944023000000925,None,10.84519309999996,0,10.845746800000143,,,,,,,,207844,001,2023-11-22_19h48.17.643,ala-gemma,2023.2.3,60.09810414525144,2023-11-22 19h48.23.533169 +0000,
0,0,0,0,0,0,0,0,16,0,16,0,10.859225100000003,,,,,,,,,,,,,,,,,,,10.846714499999962,10.84729010000001,10.847317799999928,air,T.bmp,air,C.bmp,10.847918200000095,10.847945999999865,match,16,air,T.bmp,10.848556700000245,10.848585700000058,10.859225100000003,10.958968599999935,10.942894000000251,10.942921500000011,10.958968599999935,10.958968599999935,10.958968599999935,10.958968599999935,11.194154300000264,m,0.22069710000005216,None,11.195474499999818,1,11.196039800000108,,,,,,,,207844,001,2023-11-22_19h48.17.643,ala-gemma,2023.2.3,60.09810414525144,2023-11-22 19h48.23.533169 +0000,
0,0,0,0,0,0,0,0,17,0,17,0,11.208532099999957,,,,,,,,,,,,,,,,,,,11.19700499999999,11.197588800000176,11.197616800000105,air,T.bmp,earth,T.bmp,11.198227700000189,11.19825609999998,match,17,air,T.bmp,11.198855600000115,11.198883900000055,11.208532099999957,11.325295900000128,11.29313830000001,11.293175499999961,11.325295900000128,11.325295900000128,11.325295900000128,11.325295900000128,11.526583700000174,m,0.18420830000013666,None,11.528150000000096,1,11.528845499999989,,,,,,,,207844,001,2023-11-22_19h48.17.643,ala-gemma,2023.2.3,60.09810414525144,2023-11-22 19h48.23.533169 +0000,
0,0,0,0,0,0,0,0,18,0,18,0,11.541698300000007,,,,,,,,,,,,,,,,,,,11.529977000000144,11.530645599999843,11.530705600000147,air,T.bmp,air,C.bmp,11.531370000000152,11.531403299999965,match,18,air,T.bmp,11.532098700000006,11.532132400000137,11.541698300000007,11.657574899999872,11.625484499999857,11.625517200000104,11.657574899999872,11.657574899999872,11.657574899999872,11.657574899999872,11.843183899999985,m,0.1775937000002159,None,11.844581299999845,1,11.845215800000005,,,,,,,,207844,001,2023-11-22_19h48.17.643,ala-gemma,2023.2.3,60.09810414525144,2023-11-22 19h48.23.533169 +0000,
0,0,0,0,0,0,0,0,19,0,19,0,11.858089800000016,,,,,,,,,,,,,,,,,,,11.846284300000207,11.84690610000007,11.846936100000221,air,T.bmp,sky,T.bmp,11.847680299999865,11.847711100000197,match,19,air,T.bmp,11.848328000000038,11.848359200000232,11.858089800000016,11.974705099999937,11.942860499999824,11.942899600000146,11.974705099999937,11.974705099999937,11.974705099999937,11.974705099999937,12.175345499999821,m,0.18818240000018704,None,12.176705899999888,1,12.177226799999971,,,,,,,,207844,001,2023-11-22_19h48.17.643,ala-gemma,2023.2.3,60.09810414525144,2023-11-22 19h48.23.533169 +0000,
0,0,0,0,0,0,0,0,20,0,20,0,12.190847800000029,,,,,,,,,,,,,,,,,,,12.17820010000014,12.178804600000149,12.178833599999962,air,T.bmp,earth,C.bmp,12.179435600000033,12.179463999999825,mismatch,20,earth,C.bmp,12.180058800000097,12.180087600000206,12.190847800000029,12.306741400000192,12.274453699999867,12.274481800000103,12.306741400000192,12.306741400000192,12.306741400000192,12.306741400000192,12.508323200000177,m,0.18918200000007346,None,12.5096281000001,0,12.510304700000233,,,,,,,,207844,001,2023-11-22_19h48.17.643,ala-gemma,2023.2.3,60.09810414525144,2023-11-22 19h48.23.533169 +0000,
0,0,0,0,0,0,0,0,21,0,21,0,12.52361830000018,,,,,,,,,,,,,,,,,,,12.511275100000148,12.511864500000229,12.511892699999862,air,T.bmp,sky,S.bmp,12.512485799999922,12.512514099999862,match,21,air,T.bmp,12.513106599999901,12.51313540000001,12.52361830000018,12.639649600000212,12.607266600000003,12.607293500000196,12.639649600000212,12.639649600000212,12.639649600000212,12.639649600000212,12.857919200000197,m,0.21439199999986158,None,12.859210500000245,1,12.85986580000008,,,,,,,,207844,001,2023-11-22_19h48.17.643,ala-gemma,2023.2.3,60.09810414525144,2023-11-22 19h48.23.533169 +0000,
0,0,0,0,0,0,0,0,22,0,22,0,12.873156699999981,,,,,,,,,,,,,,,,,,,12.860808100000213,12.861376299999847,12.861409999999978,air,T.bmp,sky,C.bmp,12.862107599999945,12.862137200000234,mismatch,22,sky,C.bmp,12.862726500000008,12.862754900000255,12.873156699999981,12.989029700000174,12.957332800000131,12.957361400000082,12.989029700000174,12.989029700000174,12.989029700000174,12.989029700000174,13.207470400000147,m,0.20203259999971124,None,13.208768500000133,0,13.209839500000271,,,,,,,,207844,001,2023-11-22_19h48.17.643,ala-gemma,2023.2.3,60.09810414525144,2023-11-22 19h48.23.533169 +0000,
0,0,0,0,0,0,0,0,23,0,23,0,13.222962599999846,,,,,,,,,,,,,,,,,,,13.210813900000176,13.21144030000005,13.21146839999983,air,T.bmp,earth,C.bmp,13.21207289999984,13.212101399999938,mismatch,23,earth,C.bmp,13.21268289999989,13.212711300000137,13.222962599999846,13.339170600000216,13.306530400000156,13.306557500000054,13.339170600000216,13.339170600000216,13.339170600000216,13.339170600000216,13.540847100000065,m,0.19377129999975296,None,13.542385600000216,0,13.543159299999843,,,,,,,,207844,001,2023-11-22_19h48.17.643,ala-gemma,2023.2.3,60.09810414525144,2023-11-22 19h48.23.533169 +0000,
0,0,0,0,0,0,0,0,24,0,24,0,13.55604459999995,,,,,,,,,,,,,,,,,,,13.54429459999983,13.54499020000003,13.545036299999992,air,T.bmp,earth,S.bmp,13.545690299999933,13.545724000000064,match,24,air,T.bmp,13.546405699999923,13.546438899999885,13.55604459999995,13.671522300000106,13.639986900000167,13.640017900000203,13.671522300000106,13.671522300000106,13.671522300000106,13.671522300000106,13.87418630000002,m,0.1894827000000987,None,13.875864099999944,1,13.876530399999865,,,,,,,,207844,001,2023-11-22_19h48.17.643,ala-gemma,2023.2.3,60.09810414525144,2023-11-22 19h48.23.533169 +0000,
0,0,0,0,0,0,0,0,25,0,25,0,13.889178100000208,,,,,,,,,,,,,,,,,,,13.877778800000215,13.878497199999856,13.878533099999913,air,T.bmp,air,C.bmp,13.879282299999886,13.879318900000271,mismatch,25,air,C.bmp,13.880035900000166,13.880073400000128,13.889178100000208,14.004773999999998,13.972825499999999,13.972859099999823,14.004773999999998,14.004773999999998,14.004773999999998,14.004773999999998,14.206156900000224,m,0.18810369999982868,None,14.207449800000177,0,14.208119500000066,,,,,,,,207844,001,2023-11-22_19h48.17.643,ala-gemma,2023.2.3,60.09810414525144,2023-11-22 19h48.23.533169 +0000,
0,0,0,0,0,0,0,0,26,0,26,0,14.221025299999837,,,,,,,,,,,,,,,,,,,14.2090661000002,14.209661200000028,14.209688899999946,air,T.bmp,earth,C.bmp,14.210304300000189,14.210332000000108,match,26,air,T.bmp,14.210923999999977,14.210952599999928,14.221025299999837,14.337534900000264,14.306104499999947,14.306133000000045,14.337534900000264,14.337534900000264,14.337534900000264,14.337534900000264,14.557962899999893,m,0.2043946999997388,None,14.56026810000003,1,14.56143400000019,,,,,,,,207844,001,2023-11-22_19h48.17.643,ala-gemma,2023.2.3,60.09810414525144,2023-11-22 19h48.23.533169 +0000,
0,0,0,0,0,0,0,0,27,0,27,0,14.587522100000115,,,,,,,,,,,,,,,,,,,14.56311689999984,14.564787100000103,14.564845700000205,air,T.bmp,air,C.bmp,14.565945499999998,14.565996400000131,match,27,air,T.bmp,14.567149900000004,14.567201899999873,14.587522100000115,,14.67239870000003,14.672438600000078,14.703947999999855,14.703947999999855,14.703947999999855,14.703947999999855,14.874312700000246,m,0.15777040000011766,None,14.876768699999957,1,14.877804900000228,,,,,,,,207844,001,2023-11-22_19h48.17.643,ala-gemma,2023.2.3,60.09810414525144,2023-11-22 19h48.23.533169 +0000,
0,0,0,0,0,0,0,0,28,0,28,0,14.903255600000193,,,,,,,,,,,,,,,,,,,14.879524200000105,14.88046519999989,14.880540799999835,air,T.bmp,air,C.bmp,14.881563500000084,14.881617000000006,mismatch,28,air,C.bmp,14.882683799999995,14.882735700000012,14.903255600000193,,14.987447599999996,14.987472300000263,15.019692899999882,15.019692899999882,15.019692899999882,15.019692899999882,15.204971900000146,m,0.17729180000014821,None,15.206541399999878,0,15.20724999999993,,,,,,,,207844,001,2023-11-22_19h48.17.643,ala-gemma,2023.2.3,60.09810414525144,2023-11-22 19h48.23.533169 +0000,
0,0,0,0,0,0,0,0,29,0,29,0,15.220264399999905,,,,,,,,,,,,,,,,,,,15.208356500000264,15.209014800000205,15.20904789999986,air,T.bmp,sky,S.bmp,15.209843999999975,15.209877400000096,mismatch,29,sky,S.bmp,15.210567399999945,15.210600700000214,15.220264399999905,15.33590520000007,15.304236800000126,15.304268200000024,15.33590520000007,15.33590520000007,15.33590520000007,15.33590520000007,15.556717800000115,m,0.20820939999975963,None,15.559078000000227,0,15.560115799999949,,,,,,,,207844,001,2023-11-22_19h48.17.643,ala-gemma,2023.2.3,60.09810414525144,2023-11-22 19h48.23.533169 +0000,
0,0,0,0,0,0,0,0,30,0,30,0,15.586199400000169,,,,,,,,,,,,,,,,,,,15.561847200000102,15.562874700000066,15.562926600000083,air,T.bmp,sky,S.bmp,15.564005799999904,15.564057800000228,mismatch,30,sky,S.bmp,15.565071500000158,15.565124000000196,15.586199400000169,,15.670707499999935,15.67076730000008,15.702313400000094,15.702313400000094,15.702313400000094,15.702313400000094,15.920237100000122,m,0.2039028999997754,None,15.921561799999836,0,15.922238099999959,,,,,,,,207844,001,2023-11-22_19h48.17.643,ala-gemma,2023.2.3,60.09810414525144,2023-11-22 19h48.23.533169 +0000,
0,0,0,0,0,0,0,0,31,0,31,0,15.93539490000012,,,,,,,,,,,,,,,,,,,15.923223000000235,15.923817100000178,15.923844700000245,air,T.bmp,earth,C.bmp,15.9244506,15.924479000000247,mismatch,31,earth,C.bmp,15.925138600000082,15.925167200000033,15.93539490000012,16.068715899999916,16.020374400000037,16.02041169999984,16.068715899999916,16.068715899999916,16.068715899999916,16.068715899999916,16.25349929999993,m,0.181900499999756,None,16.254807599999822,0,16.255393299999923,,,,,,,,207844,001,2023-11-22_19h48.17.643,ala-gemma,2023.2.3,60.09810414525144,2023-11-22 19h48.23.533169 +0000,
0,0,0,0,0,0,0,0,32,0,32,0,16.268563900000117,,,,,,,,,,,,,,,,,,,16.25634160000027,16.257112400000096,16.25714079999989,air,T.bmp,air,C.bmp,16.257758600000216,16.257787300000018,match,32,air,T.bmp,16.25836049999998,16.258388600000217,16.268563900000117,16.385804800000187,16.35247729999992,16.3525039000001,16.385804800000187,16.385804800000187,16.385804800000187,16.385804800000187,16.58615090000012,m,0.1937299000001076,None,16.58745420000014,1,16.58802650000007,,,,,,,,207844,001,2023-11-22_19h48.17.643,ala-gemma,2023.2.3,60.09810414525144,2023-11-22 19h48.23.533169 +0000,
0,0,0,0,0,0,0,0,33,0,33,0,16.601208900000074,,,,,,,,,,,,,,,,,,,16.588989200000015,16.589612600000237,16.58964049999986,air,T.bmp,sky,C.bmp,16.590321499999845,16.590349900000092,mismatch,33,sky,C.bmp,16.59093639999992,16.59096469999986,16.601208900000074,16.71762690000014,16.686420500000168,16.686454799999865,16.71762690000014,16.71762690000014,16.71762690000014,16.71762690000014,16.9371971999999,m,0.20989159999999174,None,16.93883700000015,0,16.939561700000013,,,,,,,,207844,001,2023-11-22_19h48.17.643,ala-gemma,2023.2.3,60.09810414525144,2023-11-22 19h48.23.533169 +0000,
0,0,0,0,0,0,0,0,34,0,34,0,16.951516300000094,,,,,,,,,,,,,,,,,,,16.940798500000255,16.941512899999907,16.9415484000001,air,T.bmp,sky,S.bmp,16.94229459999997,16.942331700000068,mismatch,34,sky,S.bmp,16.943155299999944,16.943192199999885,16.951516300000094,17.06750490000013,17.03624630000013,17.03629030000002,17.06750490000013,17.06750490000013,17.06750490000013,17.06750490000013,17.25351039999987,m,0.18203500000026906,None,17.255131599999913,0,17.255921899999976,,,,,,,,207844,001,2023-11-22_19h48.17.643,ala-gemma,2023.2.3,60.09810414525144,2023-11-22 19h48.23.533169 +0000,
0,0,0,0,0,0,0,0,35,0,35,0,17.267788999999993,,,,,,,,,,,,,,,,,,,17.257132900000215,17.257913200000075,17.257949199999985,air,T.bmp,air,S.bmp,17.258692500000052,17.25872870000012,mismatch,35,air,S.bmp,17.259463500000038,17.259499700000106,17.267788999999993,17.3834224000002,17.35199680000005,17.352030300000024,17.3834224000002,17.3834224000002,17.3834224000002,17.3834224000002,17.58626839999988,m,0.19685160000017277,None,17.58793289999994,0,17.588654600000154,,,,,,,,207844,001,2023-11-22_19h48.17.643,ala-gemma,2023.2.3,60.09810414525144,2023-11-22 19h48.23.533169 +0000,
0,0,0,0,0,0,0,0,36,0,36,0,17.600983799999995,,,,,,,,,,,,,,,,,,,17.589867900000172,17.590582599999834,17.590619099999913,air,T.bmp,sky,T.bmp,17.59137580000015,17.59141230000023,mismatch,36,sky,T.bmp,17.592259300000023,17.592296100000112,17.600983799999995,17.716378500000246,17.685201700000107,17.685234500000206,17.716378500000246,17.716378500000246,17.716378500000246,17.716378500000246,17.91914850000012,m,0.19098559999974896,None,17.920808599999873,0,17.921540899999854,,,,,,,,207844,001,2023-11-22_19h48.17.643,ala-gemma,2023.2.3,60.09810414525144,2023-11-22 19h48.23.533169 +0000,
0,0,0,0,0,0,0,0,37,0,37,0,17.933631299999888,,,,,,,,,,,,,,,,,,,17.922750499999893,17.923503299999993,17.923539299999902,air,T.bmp,air,S.bmp,17.924297500000193,17.924334299999828,mismatch,37,air,S.bmp,17.92507579999983,17.92511250000007,17.933631299999888,18.049242699999922,18.018076800000017,18.018114200000127,18.049242699999922,18.049242699999922,18.049242699999922,18.049242699999922,18.218723200000113,m,0.16123620000007577,None,18.220392300000185,0,18.221121999999923,,,,,,,,207844,001,2023-11-22_19h48.17.643,ala-gemma,2023.2.3,60.09810414525144,2023-11-22 19h48.23.533169 +0000,
0,0,0,0,0,0,0,0,38,0,38,0,18.233187400000133,,,,,,,,,,,,,,,,,,,18.222329100000024,18.223082599999998,18.223116499999833,air,T.bmp,earth,T.bmp,18.223826100000224,18.22386000000006,mismatch,38,earth,T.bmp,18.224520499999926,18.22455489999993,18.233187400000133,18.34897080000019,18.317583300000024,18.31761880000022,18.34897080000019,18.34897080000019,18.34897080000019,18.34897080000019,18.551504000000023,m,0.1914718000002722,None,18.553182900000138,0,18.553978299999926,,,,,,,,207844,001,2023-11-22_19h48.17.643,ala-gemma,2023.2.3,60.09810414525144,2023-11-22 19h48.23.533169 +0000,
0,0,0,0,0,0,0,0,39,0,39,0,18.56610550000005,,,,,,,,,,,,,,,,,,,18.55523970000013,18.555974400000196,18.556010300000253,air,T.bmp,sky,T.bmp,18.556745299999875,18.556781799999953,mismatch,39,sky,T.bmp,18.55750450000005,18.55754100000013,18.56610550000005,18.681687199999942,18.650483299999905,18.650519199999962,18.681687199999942,18.681687199999942,18.681687199999942,18.681687199999942,18.750109200000225,m,0.06038950000038312,None,18.751428600000054,0,18.75201509999988,,,,,,,,207844,001,2023-11-22_19h48.17.643,ala-gemma,2023.2.3,60.09810414525144,2023-11-22 19h48.23.533169 +0000,
0,0,0,0,0,0,0,0,40,0,40,0,18.76540120000027,,,,,,,,,,,,,,,,,,,18.75298870000006,18.753595600000153,18.75362589999986,air,T.bmp,sky,S.bmp,18.75417090000019,18.754199399999834,mismatch,40,sky,S.bmp,18.7547926000002,18.754820999999993,18.76540120000027,18.865021399999932,18.849515500000052,18.849544100000003,18.865021399999932,18.865021399999932,18.865021399999932,18.865021399999932,18.966524400000253,m,0.09107449999964956,None,18.96786259999999,0,18.968451600000208,,,,,,,,207844,001,2023-11-22_19h48.17.643,ala-gemma,2023.2.3,60.09810414525144,2023-11-22 19h48.23.533169 +0000,
0,0,0,0,0,0,0,0,41,0,41,0,18.98142450000023,,,,,,,,,,,,,,,,,,,18.969406600000184,18.969990600000074,18.97001850000015,air,T.bmp,earth,S.bmp,18.97061530000019,18.97064390000014,match,41,air,T.bmp,18.971203699999933,18.971232599999894,18.98142450000023,19.097891400000208,19.066623199999867,19.066657700000178,19.097891400000208,19.097891400000208,19.097891400000208,19.097891400000208,19.216074899999967,m,0.10643949999985125,None,19.21739460000026,1,19.217979600000035,,,,,,,,207844,001,2023-11-22_19h48.17.643,ala-gemma,2023.2.3,60.09810414525144,2023-11-22 19h48.23.533169 +0000,
0,0,0,0,0,0,0,0,42,0,42,0,19.23118629999999,,,,,,,,,,,,,,,,,,,19.218922399999883,19.2195056999999,19.219533599999977,air,T.bmp,earth,T.bmp,19.22011190000012,19.2201399999999,mismatch,42,earth,T.bmp,19.22071159999996,19.220739500000036,19.23118629999999,19.34736500000008,19.31556300000011,19.315591399999903,19.34736500000008,19.34736500000008,19.34736500000008,19.34736500000008,19.41573100000005,m,0.057821899999908055,None,19.41703039999993,0,19.417614200000116,,,,,,,,207844,001,2023-11-22_19h48.17.643,ala-gemma,2023.2.3,60.09810414525144,2023-11-22 19h48.23.533169 +0000,
0,0,0,0,0,0,0,0,43,0,43,0,19.431310200000098,,,,,,,,,,,,,,,,,,,19.418553599999996,19.419137800000044,19.41916540000011,air,T.bmp,air,S.bmp,19.419855200000256,19.419883300000038,match,43,air,T.bmp,19.42045619999999,19.420484300000226,19.431310200000098,19.54719040000009,19.51527040000019,19.515297500000088,19.54719040000009,19.54719040000009,19.54719040000009,19.54719040000009,19.61546380000027,m,0.06481340000027558,None,19.616805399999976,1,19.61731039999995,,,,,,,,207844,001,2023-11-22_19h48.17.643,ala-gemma,2023.2.3,60.09810414525144,2023-11-22 19h48.23.533169 +0000,
0,0,0,0,0,0,0,0,44,0,44,0,19.6310797000001,,,,,,,,,,,,,,,,,,,19.618271599999844,19.61885110000003,19.618878199999926,air,T.bmp,sky,T.bmp,19.619504000000234,19.619532100000015,match,44,air,T.bmp,19.620129200000065,19.620157299999846,19.6310797000001,19.7310722000002,19.71552520000023,19.71555330000001,19.7310722000002,19.7310722000002,19.7310722000002,19.7310722000002,19.782414600000266,m,0.0483328000000256,None,19.783726000000115,1,19.784317799999826,,,,,,,,207844,001,2023-11-22_19h48.17.643,ala-gemma,2023.2.3,60.09810414525144,2023-11-22 19h48.23.533169 +0000,
0,0,0,0,0,0,0,0,45,0,45,0,19.797249499999907,,,,,,,,,,,,,,,,,,,19.785290700000132,19.78587349999998,19.785900899999888,air,T.bmp,sky,C.bmp,19.786504499999864,19.78653290000011,mismatch,45,sky,C.bmp,19.78710779999983,19.787135600000056,19.797249499999907,19.913521200000105,19.881462199999987,19.881489700000202,19.913521200000105,19.913521200000105,19.913521200000105,19.913521200000105,19.966053699999975,m,0.04876560000002428,None,19.967775099999926,0,19.968444699999964,,,,,,,,207844,001,2023-11-22_19h48.17.643,ala-gemma,2023.2.3,60.09810414525144,2023-11-22 19h48.23.533169 +0000,
0,0,0,0,0,0,0,0,46,0,46,0,19.980925599999864,,,,,,,,,,,,,,,,,,,19.9697799999999,19.97050309999986,19.970538800000213,air,T.bmp,earth,C.bmp,19.971397700000125,19.971434500000214,mismatch,46,earth,C.bmp,19.97213079999983,19.97216759999992,19.980925599999864,20.09634929999993,20.06528759999992,20.0653255000002,20.09634929999993,20.09634929999993,20.09634929999993,20.09634929999993,20.148685999999998,m,0.044572100000095816,None,20.150005500000134,0,20.150676700000076,,,,,,,,207844,001,2023-11-22_19h48.17.643,ala-gemma,2023.2.3,60.09810414525144,2023-11-22 19h48.23.533169 +0000,
0,0,0,0,0,0,0,0,47,0,47,0,20.163107599999876,,,,,,,,,,,,,,,,,,,20.151633299999958,20.152206600000227,20.1522401000002,air,T.bmp,earth,T.bmp,20.15284789999987,20.152876099999958,mismatch,47,earth,T.bmp,20.153464399999848,20.153493100000105,20.163107599999876,20.26363930000025,20.2476329000001,20.247660800000176,20.26363930000025,20.26363930000025,20.26363930000025,20.26363930000025,20.301399599999968,m,0.03495459999976447,None,20.30367060000026,0,20.304723000000195,,,,,,,,207844,001,2023-11-22_19h48.17.643,ala-gemma,2023.2.3,60.09810414525144,2023-11-22 19h48.23.533169 +0000,
0,0,0,0,0,0,0,0,48,0,48,0,20.330433699999958,,,,,,,,,,,,,,,,,,,20.30646569999999,20.307364600000255,20.30741470000021,air,T.bmp,sky,T.bmp,20.30845309999995,20.308504699999958,mismatch,48,sky,T.bmp,20.309549699999934,20.30960039999991,20.330433699999958,,20.415421499999866,20.415462299999945,20.446040599999833,20.446040599999833,20.446040599999833,20.446040599999833,20.481291300000066,m,0.031322000000272965,None,20.482522000000245,0,20.483135400000265,,,,,,,,207844,001,2023-11-22_19h48.17.643,ala-gemma,2023.2.3,60.09810414525144,2023-11-22 19h48.23.533169 +0000,
0,0,0,0,0,0,0,0,49,0,49,0,20.496555100000023,,,,,,,,,,,,,,,,,,,20.48405219999995,20.484645399999863,20.484680300000036,air,T.bmp,air,C.bmp,20.485255399999915,20.485281400000076,mismatch,49,air,C.bmp,20.48583069999995,20.485856700000113,20.496555100000023,20.61246170000004,20.582431799999995,20.58249990000013,20.61246170000004,20.61246170000004,20.61246170000004,20.61246170000004,20.932141700000102,m,0.305478199999925,None,20.93381559999989,0,20.934543700000177,,,,,,,,207844,001,2023-11-22_19h48.17.643,ala-gemma,2023.2.3,60.09810414525144,2023-11-22 19h48.23.533169 +0000,
0,0,0,0,0,0,0,0,50,0,50,0,20.946668300000056,,,,,,,,,,,,,,,,,,,20.935809000000063,20.936533399999917,20.936569299999974,air,T.bmp,air,S.bmp,20.937342400000034,20.93737880000026,mismatch,50,air,S.bmp,20.938119800000095,20.938155800000004,20.946668300000056,21.06216059999997,21.03024940000023,21.03028489999997,21.06216059999997,21.06216059999997,21.06216059999997,21.06216059999997,21.09811149999996,m,0.021861100000023725,None,21.099769599999945,0,21.100437600000078,,,,,,,,207844,001,2023-11-22_19h48.17.643,ala-gemma,2023.2.3,60.09810414525144,2023-11-22 19h48.23.533169 +0000,
0,0,0,0,0,0,0,0,51,0,51,0,21.113196499999958,,,,,,,,,,,,,,,,,,,21.101678099999845,21.102429200000188,21.102465200000097,air,T.bmp,sky,T.bmp,21.10323470000003,21.103271100000256,mismatch,51,sky,T.bmp,21.103979699999854,21.104016700000102,21.113196499999958,21.228600599999936,21.198090299999876,21.19812499999989,21.228600599999936,21.228600599999936,21.228600599999936,21.228600599999936,21.29819170000019,m,0.06460360000028231,None,21.299818200000118,0,21.300510699999904,,,,,,,,207844,001,2023-11-22_19h48.17.643,ala-gemma,2023.2.3,60.09810414525144,2023-11-22 19h48.23.533169 +0000,
0,0,0,0,0,0,0,0,52,0,52,0,21.31255420000025,,,,,,,,,,,,,,,,,,,21.30175710000003,21.30249330000015,21.30252879999989,air,T.bmp,earth,T.bmp,21.303280800000266,21.30331729999989,mismatch,52,earth,T.bmp,21.30404290000024,21.304079600000023,21.31255420000025,21.428032799999983,21.396906400000262,21.39694039999995,21.428032799999983,21.428032799999983,21.428032799999983,21.428032799999983,21.463388399999985,m,0.03324269999984608,None,21.464686300000267,0,21.46527550000019,,,,,,,,207844,001,2023-11-22_19h48.17.643,ala-gemma,2023.2.3,60.09810414525144,2023-11-22 19h48.23.533169 +0000,
0,0,0,0,0,0,0,0,53,0,53,0,21.478305300000102,,,,,,,,,,,,,,,,,,,21.466208299999835,21.466780700000072,21.46680839999999,air,T.bmp,earth,C.bmp,21.467411900000116,21.467440200000055,mismatch,53,earth,C.bmp,21.468012400000134,21.468040199999905,21.478305300000102,21.59523279999985,21.564925499999845,21.56498049999982,21.59523279999985,21.59523279999985,21.59523279999985,21.59523279999985,21.632870299999922,m,0.02509799999961615,None,21.63521609999998,0,21.636225700000068,,,,,,,,207844,001,2023-11-22_19h48.17.643,ala-gemma,2023.2.3,60.09810414525144,2023-11-22 19h48.23.533169 +0000,
0,0,0,0,0,0,0,0,54,0,54,0,21.661492499999895,,,,,,,,,,,,,,,,,,,21.637903499999993,21.639004000000114,21.63905419999992,air,T.bmp,earth,C.bmp,21.640062899999975,21.64011329999994,mismatch,54,earth,C.bmp,21.641074600000138,21.641125999999986,21.661492499999895,,21.746370299999853,21.74641120000024,21.778035400000135,21.778035400000135,21.778035400000135,21.778035400000135,21.798836299999948,m,0.014346699999805423,None,21.801145800000086,0,21.802154999999857,,,,,,,,207844,001,2023-11-22_19h48.17.643,ala-gemma,2023.2.3,60.09810414525144,2023-11-22 19h48.23.533169 +0000,
0,0,0,0,0,0,0,0,55,0,55,0,21.828378799999882,,,,,,,,,,,,,,,,,,,21.803881199999978,21.804870100000244,21.804920500000208,air,T.bmp,sky,C.bmp,21.80621259999998,21.806283700000222,match,55,air,T.bmp,21.80742650000002,21.807476299999962,21.828378799999882,,21.9129668999999,21.91303139999991,21.944126400000187,21.944126400000187,21.944126400000187,21.944126400000187,22.179248700000244,m,0.21940420000009908,None,22.18058689999998,1,22.181220700000267,,,,,,,,207844,001,2023-11-22_19h48.17.643,ala-gemma,2023.2.3,60.09810414525144,2023-11-22 19h48.23.533169 +0000,
0,0,0,0,0,0,0,0,56,0,56,0,22.194018900000174,,,,,,,,,,,,,,,,,,,22.182279799999833,22.182895400000234,22.182924100000037,air,T.bmp,sky,S.bmp,22.183511799999906,22.183539999999994,mismatch,56,sky,S.bmp,22.1841359,22.18416470000011,22.194018900000174,22.310410300000058,22.277850500000113,22.277877999999873,22.310410300000058,22.310410300000058,22.310410300000058,22.310410300000058,22.712179000000106,m,0.3963496999999734,None,22.713686900000084,0,22.714366000000155,,,,,,,,207844,001,2023-11-22_19h48.17.643,ala-gemma,2023.2.3,60.09810414525144,2023-11-22 19h48.23.533169 +0000,
0,0,0,0,0,0,0,0,57,0,57,0,22.72716500000024,,,,,,,,,,,,,,,,,,,22.7154687000002,22.716147399999954,22.716179900000043,air,T.bmp,sky,T.bmp,22.716922000000068,22.716955899999903,mismatch,57,sky,T.bmp,22.717644100000143,22.717677099999946,22.72716500000024,22.84304830000019,22.81092239999998,22.81095430000005,22.84304830000019,22.84304830000019,22.84304830000019,22.84304830000019,22.961587300000247,m,0.10296620000008261,None,22.963086400000066,0,22.963770400000158,,,,,,,,207844,001,2023-11-22_19h48.17.643,ala-gemma,2023.2.3,60.09810414525144,2023-11-22 19h48.23.533169 +0000,
0,0,0,0,0,0,0,0,58,0,58,0,22.976851400000214,,,,,,,,,,,,,,,,,,,22.96488350000027,22.96551619999991,22.96554879999985,air,T.bmp,air,C.bmp,22.9662486000002,22.966281900000013,mismatch,58,air,C.bmp,22.966964799999914,22.966997900000024,22.976851400000214,23.092866200000117,23.06097929999987,23.061014200000045,23.092866200000117,23.092866200000117,23.092866200000117,23.092866200000117,23.29500300000018,m,0.19950440000002345,None,23.296711399999822,0,23.297453099999984,,,,,,,,207844,001,2023-11-22_19h48.17.643,ala-gemma,2023.2.3,60.09810414525144,2023-11-22 19h48.23.533169 +0000,
0,0,0,0,0,0,0,0,59,0,59,0,23.309667699999864,,,,,,,,,,,,,,,,,,,23.29869430000008,23.299432700000125,23.299467899999854,air,T.bmp,earth,T.bmp,23.30020599999989,23.300242100000105,match,59,air,T.bmp,23.30096370000001,23.301008100000217,23.309667699999864,23.425417899999957,23.394274600000244,23.394310000000132,23.425417899999957,23.425417899999957,23.425417899999957,23.425417899999957,24.35947269999997,m,0.9206278999999995,None,24.36075830000027,1,24.361355000000003,,,,,,,,207844,001,2023-11-22_19h48.17.643,ala-gemma,2023.2.3,60.09810414525144,2023-11-22 19h48.23.533169 +0000,
0,0,0,0,1,0,1,0,0,0,0,0,25.972979900000155,,,,,,,,,,,,,,,25.960345999999845,25.961037600000054,25.96107310000025,25.961968399999932,25.96394670000018,25.96469789999992,25.964734099999987,air,T.bmp,sky,C.bmp,25.965531100000135,25.965568200000234,mismatch,0,sky,C.bmp,25.96629770000027,25.966356400000222,25.972979900000155,26.088839200000166,26.057381800000257,26.05741590000025,26.088839200000166,26.088839200000166,26.088839200000166,26.088839200000166,27.59085210000012,m,1.4930870999996841,None,27.59389850000025,0,27.594909100000223,24.361511200000223,24.37453080000023,24.37453080000023,25.958646999999928,space,1.5686821000003874,None,207844,001,2023-11-22_19h48.17.643,ala-gemma,2023.2.3,60.09810414525144,2023-11-22 19h48.23.533169 +0000,
0,0,0,0,1,0,1,0,1,0,1,0,27.620006999999987,,,,,,,,,,,,,,,,,,,27.596691300000202,27.59758779999993,27.597637400000167,air,T.bmp,air,C.bmp,27.598605300000145,27.59865630000013,mismatch,1,air,C.bmp,27.59960080000019,27.59967319999987,27.620006999999987,,27.703965199999857,27.703990299999987,27.73636570000008,27.73636570000008,27.73636570000008,27.73636570000008,27.888596600000255,m,0.14609169999994265,None,27.890137400000185,0,27.890822200000002,,,,,,,,207844,001,2023-11-22_19h48.17.643,ala-gemma,2023.2.3,60.09810414525144,2023-11-22 19h48.23.533169 +0000,
0,0,0,0,1,0,1,0,2,0,2,0,27.903616800000236,,,,,,,,,,,,,,,,,,,27.891948100000263,27.892687500000193,27.892719500000112,air,T.bmp,air,S.bmp,27.893430399999943,27.893463299999894,match,2,air,T.bmp,27.89415850000023,27.894192000000203,27.903616800000236,28.0196734000001,27.987590000000182,27.98762170000009,28.0196734000001,28.0196734000001,28.0196734000001,28.0196734000001,28.072673000000123,m,0.04972270000007484,None,28.07417579999992,1,28.074924900000042,,,,,,,,207844,001,2023-11-22_19h48.17.643,ala-gemma,2023.2.3,60.09810414525144,2023-11-22 19h48.23.533169 +0000,
0,0,0,0,1,0,1,0,3,0,3,0,28.086527800000113,,,,,,,,,,,,,,,,,,,28.07607420000022,28.0767721000002,28.07680429999982,air,T.bmp,sky,C.bmp,28.077467399999932,28.0775007000002,mismatch,3,sky,C.bmp,28.078184599999986,28.078217000000222,28.086527800000113,28.202584099999967,28.170061499999974,28.17008910000004,28.202584099999967,28.202584099999967,28.202584099999967,28.202584099999967,28.287695800000165,m,0.0696645000002718,None,28.28904360000024,0,28.28964730000007,,,,,,,,207844,001,2023-11-22_19h48.17.643,ala-gemma,2023.2.3,60.09810414525144,2023-11-22 19h48.23.533169 +0000,
0,0,0,0,1,0,1,0,4,0,4,0,28.302844499999992,,,,,,,,,,,,,,,,,,,28.29062840000006,28.29128189999983,28.291309300000194,air,T.bmp,sky,T.bmp,28.29192550000016,28.29195400000026,mismatch,4,sky,T.bmp,28.29253890000018,28.292569100000037,28.302844499999992,28.402733800000078,28.387287200000173,28.38731400000006,28.402733800000078,28.402733800000078,28.402733800000078,28.402733800000078,28.470592199999828,m,0.05067370000006122,None,28.471898000000238,0,28.472593399999823,,,,,,,,207844,001,2023-11-22_19h48.17.643,ala-gemma,2023.2.3,60.09810414525144,2023-11-22 19h48.23.533169 +0000,
0,0,0,0,1,0,1,0,5,0,5,0,28.48595800000021,,,,,,,,,,,,,,,,,,,28.473548100000244,28.47414609999987,28.474173999999948,air,T.bmp,sky,S.bmp,28.474765299999945,28.474793200000022,match,5,air,T.bmp,28.47538510000004,28.475413600000138,28.48595800000021,28.60184509999999,28.570550800000092,28.5705796000002,28.60184509999999,28.60184509999999,28.60184509999999,28.60184509999999,28.63748680000026,m,0.0338237000000845,None,28.638804900000196,1,28.6394221999999,,,,,,,,207844,001,2023-11-22_19h48.17.643,ala-gemma,2023.2.3,60.09810414525144,2023-11-22 19h48.23.533169 +0000,
0,0,0,0,1,0,1,0,6,0,6,0,28.65261240000018,,,,,,,,,,,,,,,,,,,28.640369499999906,28.640954399999828,28.6409821000002,air,T.bmp,earth,S.bmp,28.64167290000023,28.641700799999853,mismatch,6,earth,S.bmp,28.64228150000008,28.642320400000244,28.65261240000018,28.768341200000123,28.736741300000176,28.736769099999947,28.768341200000123,28.768341200000123,28.768341200000123,28.768341200000123,28.819934099999955,m,0.04074849999960861,None,28.821241399999963,0,28.82191439999997,,,,,,,,207844,001,2023-11-22_19h48.17.643,ala-gemma,2023.2.3,60.09810414525144,2023-11-22 19h48.23.533169 +0000,
0,0,0,0,1,0,1,0,7,0,7,0,28.83503150000024,,,,,,,,,,,,,,,,,,,28.822862500000156,28.82344460000013,28.823484200000166,air,T.bmp,sky,C.bmp,28.824153399999886,28.824181800000133,mismatch,7,sky,C.bmp,28.824774199999865,28.824802399999953,28.83503150000024,28.95141360000025,28.919899200000145,28.919927800000096,28.95141360000025,28.95141360000025,28.95141360000025,28.95141360000025,29.004016200000024,m,0.035688800000116316,None,29.005671800000073,0,29.006441500000165,,,,,,,,207844,001,2023-11-22_19h48.17.643,ala-gemma,2023.2.3,60.09810414525144,2023-11-22 19h48.23.533169 +0000,
0,0,0,0,1,0,1,0,8,0,8,0,29.01932369999986,,,,,,,,,,,,,,,,,,,29.007647800000086,29.008381999999983,29.00841760000003,air,T.bmp,earth,T.bmp,29.00912789999984,29.009164500000225,mismatch,8,earth,T.bmp,29.009887100000014,29.00992780000024,29.01932369999986,29.134894499999973,29.103491100000156,29.103528500000266,29.134894499999973,29.134894499999973,29.134894499999973,29.134894499999973,29.171065200000157,m,0.027529299999969226,None,29.17274610000004,0,29.173465100000158,,,,,,,,207844,001,2023-11-22_19h48.17.643,ala-gemma,2023.2.3,60.09810414525144,2023-11-22 19h48.23.533169 +0000,
0,0,0,0,1,0,1,0,9,0,9,0,29.185729000000265,,,,,,,,,,,,,,,,,,,29.174726400000054,29.17547969999987,29.175514900000053,air,T.bmp,earth,C.bmp,29.17621999999983,29.176256900000226,mismatch,9,earth,C.bmp,29.177005800000188,29.177045400000225,29.185729000000265,29.30149500000016,29.27019079999991,29.27022450000004,29.30149500000016,29.30149500000016,29.30149500000016,29.30149500000016,29.33955650000007,m,0.03220280000005005,None,29.341840000000047,0,29.342889699999887,,,,,,,,207844,001,2023-11-22_19h48.17.643,ala-gemma,2023.2.3,60.09810414525144,2023-11-22 19h48.23.533169 +0000,
0,0,0,0,1,0,1,0,10,0,10,0,29.36803420000024,,,,,,,,,,,,,,,,,,,29.34457939999993,29.34556479999992,29.345614899999873,air,T.bmp,sky,T.bmp,29.346666500000083,29.346716099999867,mismatch,10,sky,T.bmp,29.34778090000009,29.347832200000084,29.36803420000024,,29.453377199999977,29.453417100000024,29.484126800000013,29.484126800000013,29.484126800000013,29.484126800000013,29.520488300000125,m,0.03280769999992117,None,29.521820800000114,0,29.522340900000017,,,,,,,,207844,001,2023-11-22_19h48.17.643,ala-gemma,2023.2.3,60.09810414525144,2023-11-22 19h48.23.533169 +0000,
0,0,0,0,1,0,1,0,11,0,11,0,29.53469290000021,,,,,,,,,,,,,,,,,,,29.52332030000025,29.523906100000204,29.523933599999964,air,T.bmp,air,C.bmp,29.524558900000102,29.52458720000004,mismatch,11,air,C.bmp,29.52518710000004,29.525215600000138,29.53469290000021,29.650814399999945,29.619633899999826,29.61966029999985,29.650814399999945,29.650814399999945,29.650814399999945,29.650814399999945,29.702731500000027,m,0.046665999999731866,None,29.704007400000137,0,29.70458510000026,,,,,,,,207844,001,2023-11-22_19h48.17.643,ala-gemma,2023.2.3,60.09810414525144,2023-11-22 19h48.23.533169 +0000,
0,0,0,0,1,0,1,0,12,0,12,0,29.71803480000017,,,,,,,,,,,,,,,,,,,29.70555030000014,29.706169900000077,29.706197599999996,air,T.bmp,air,S.bmp,29.70678910000015,29.70681710000008,match,12,air,T.bmp,29.70741249999992,29.707441200000176,29.71803480000017,29.83424070000001,29.80243819999987,29.802471999999852,29.83424070000001,29.83424070000001,29.83424070000001,29.83424070000001,29.88867029999983,m,0.04086920000008831,None,29.891053499999998,1,29.892137400000138,,,,,,,,207844,001,2023-11-22_19h48.17.643,ala-gemma,2023.2.3,60.09810414525144,2023-11-22 19h48.23.533169 +0000,
0,0,0,0,1,0,1,0,13,0,13,0,29.9171194999999,,,,,,,,,,,,,,,,,,,29.89390860000003,29.894929800000227,29.894980399999895,air,T.bmp,earth,T.bmp,29.896126399999957,29.89617780000026,mismatch,13,earth,T.bmp,29.897272499999872,29.897327000000132,29.9171194999999,,30.001060300000063,30.00108709999995,30.033888899999965,30.033888899999965,30.033888899999965,30.033888899999965,30.053589600000123,m,0.016279400000257738,None,30.055145899999843,0,30.055875900000046,,,,,,,,207844,001,2023-11-22_19h48.17.643,ala-gemma,2023.2.3,60.09810414525144,2023-11-22 19h48.23.533169 +0000,
0,0,0,0,1,0,1,0,14,0,14,0,30.06757430000016,,,,,,,,,,,,,,,,,,,30.05699319999985,30.05768040000021,30.057712899999842,air,T.bmp,earth,S.bmp,30.058446399999866,30.058479400000124,match,14,air,T.bmp,30.059180000000197,30.059212600000137,30.06757430000016,30.18295130000024,30.152068299999883,30.15210130000014,30.18295130000024,30.18295130000024,30.18295130000024,30.18295130000024,30.23619080000026,m,0.04452599999967788,None,30.237718500000028,1,30.238476300000002,,,,,,,,207844,001,2023-11-22_19h48.17.643,ala-gemma,2023.2.3,60.09810414525144,2023-11-22 19h48.23.533169 +0000,
0,0,0,0,1,0,1,0,15,0,15,0,30.251208900000165,,,,,,,,,,,,,,,,,,,30.23961529999997,30.240381699999944,30.24041360000001,air,T.bmp,earth,T.bmp,30.241102500000125,30.241135100000065,mismatch,15,earth,T.bmp,30.241803400000208,30.241836499999863,30.251208900000165,30.366894199999933,30.334993899999972,30.33502550000003,30.366894199999933,30.366894199999933,30.366894199999933,30.366894199999933,30.436885200000233,m,0.052632099999755155,None,30.438982000000124,0,30.43989160000001,,,,,,,,207844,001,2023-11-22_19h48.17.643,ala-gemma,2023.2.3,60.09810414525144,2023-11-22 19h48.23.533169 +0000,
0,0,0,0,1,0,1,0,16,0,16,0,30.466478199999983,,,,,,,,,,,,,,,,,,,30.44145690000005,30.442398799999864,30.4424426999999,air,T.bmp,sky,C.bmp,30.44339510000009,30.4434411000002,match,16,air,T.bmp,30.444362600000204,30.444408199999998,30.466478199999983,,30.551002400000016,30.55105739999999,30.58272450000004,30.58272450000004,30.58272450000004,30.58272450000004,30.601112700000158,m,0.012146199999733653,None,30.602469200000087,1,30.60298479999983,,,,,,,,207844,001,2023-11-22_19h48.17.643,ala-gemma,2023.2.3,60.09810414525144,2023-11-22 19h48.23.533169 +0000,
0,0,0,0,1,0,1,0,17,0,17,0,30.616363699999965,,,,,,,,,,,,,,,,,,,30.603978799999823,30.604577800000243,30.60460550000016,air,T.bmp,sky,S.bmp,30.60523409999996,30.60526290000007,mismatch,17,sky,S.bmp,30.60593199999994,30.605960400000185,30.616363699999965,30.732734600000185,30.70064020000018,30.700668999999834,30.732734600000185,30.732734600000185,30.732734600000185,30.732734600000185,30.78690659999984,m,0.042241999999987456,None,30.789240600000085,0,30.79029730000002,,,,,,,,207844,001,2023-11-22_19h48.17.643,ala-gemma,2023.2.3,60.09810414525144,2023-11-22 19h48.23.533169 +0000,
0,0,0,0,1,0,1,0,18,0,18,0,30.815903600000183,,,,,,,,,,,,,,,,,,,30.792069099999935,30.79304050000019,30.793091099999856,air,T.bmp,air,C.bmp,30.794155900000078,30.79420560000017,mismatch,18,air,C.bmp,30.795203499999843,30.795254199999818,30.815903600000183,,30.89957830000003,30.899601800000255,30.932129199999963,30.932129199999963,30.932129199999963,30.932129199999963,30.967856600000232,m,0.029522199999973964,None,30.96942050000007,0,30.96998080000003,,,,,,,,207844,001,2023-11-22_19h48.17.643,ala-gemma,2023.2.3,60.09810414525144,2023-11-22 19h48.23.533169 +0000,
0,0,0,0,1,0,1,0,19,0,19,0,30.982751500000177,,,,,,,,,,,,,,,,,,,30.970951199999945,30.971535199999835,30.97156300000006,air,T.bmp,sky,T.bmp,30.972156499999983,30.972184300000208,match,19,air,T.bmp,30.972789100000227,30.97281729999986,30.982751500000177,31.08234930000026,31.06688239999994,31.066940799999884,31.08234930000026,31.08234930000026,31.08234930000026,31.08234930000026,31.13397040000018,m,0.050068000000010215,None,31.135291399999915,1,31.135920199999873,,,,,,,,207844,001,2023-11-22_19h48.17.643,ala-gemma,2023.2.3,60.09810414525144,2023-11-22 19h48.23.533169 +0000,
0,0,0,0,1,0,1,0,20,0,20,0,31.14888370000017,,,,,,,,,,,,,,,,,,,31.13687889999983,31.137455600000067,31.137487399999827,air,T.bmp,earth,C.bmp,31.13809050000009,31.138118400000167,mismatch,20,earth,C.bmp,31.13871909999989,31.13874739999983,31.14888370000017,31.28163900000027,31.234102500000063,31.234148900000037,31.28163900000027,31.28163900000027,31.28163900000027,31.28163900000027,31.317277300000114,m,0.025703999999677762,None,31.31859230000009,0,31.319191200000205,,,,,,,,207844,001,2023-11-22_19h48.17.643,ala-gemma,2023.2.3,60.09810414525144,2023-11-22 19h48.23.533169 +0000,
0,0,0,0,1,0,1,0,21,0,21,0,31.331962700000076,,,,,,,,,,,,,,,,,,,31.320135200000095,31.32071189999988,31.320739700000104,air,T.bmp,earth,S.bmp,31.321348500000113,31.321376599999894,match,21,air,T.bmp,31.321946200000184,31.321974699999828,31.331962700000076,31.46525079999992,31.418116499999996,31.418165000000045,31.46525079999992,31.46525079999992,31.46525079999992,31.46525079999992,31.503331200000048,m,0.029313600000023143,None,31.50571630000013,1,31.50679530000025,,,,,,,,207844,001,2023-11-22_19h48.17.643,ala-gemma,2023.2.3,60.09810414525144,2023-11-22 19h48.23.533169 +0000,
0,0,0,0,1,0,1,0,22,0,22,0,31.531878199999937,,,,,,,,,,,,,,,,,,,31.508575400000154,31.50958219999984,31.50963159999992,air,T.bmp,earth,C.bmp,31.510844400000224,31.51092830000016,mismatch,22,earth,C.bmp,31.512028799999825,31.51208110000016,31.531878199999937,,31.6162918,31.616349700000228,31.665408599999864,31.665408599999864,31.665408599999864,31.665408599999864,31.685748299999887,m,0.016818399999920075,None,31.68812190000017,0,31.689178900000115,,,,,,,,207844,001,2023-11-22_19h48.17.643,ala-gemma,2023.2.3,60.09810414525144,2023-11-22 19h48.23.533169 +0000,
0,0,0,0,1,0,1,0,23,0,23,0,31.7148416,,,,,,,,,,,,,,,,,,,31.690897699999823,31.69197290000011,31.69205060000013,air,T.bmp,sky,S.bmp,31.693123300000025,31.69317430000001,mismatch,23,sky,S.bmp,31.694192400000247,31.694244400000116,31.7148416,,31.798671699999886,31.798696700000164,31.830915200000163,31.830915200000163,31.830915200000163,31.830915200000163,31.883231899999828,m,0.0384582000001501,None,31.88473019999992,0,31.885423100000025,,,,,,,,207844,001,2023-11-22_19h48.17.643,ala-gemma,2023.2.3,60.09810414525144,2023-11-22 19h48.23.533169 +0000,
0,0,0,0,1,0,1,0,24,0,24,0,31.898259699999926,,,,,,,,,,,,,,,,,,,31.886579099999835,31.887243600000147,31.88727689999996,air,T.bmp,earth,S.bmp,31.887972999999874,31.888005899999825,mismatch,24,earth,S.bmp,31.88877219999995,31.888817300000028,31.898259699999926,32.01413450000018,31.982802399999855,31.98284960000001,32.01413450000018,32.01413450000018,32.01413450000018,32.01413450000018,32.049570700000004,m,0.02881329999991067,None,32.05109810000022,0,32.051775100000214,,,,,,,,207844,001,2023-11-22_19h48.17.643,ala-gemma,2023.2.3,60.09810414525144,2023-11-22 19h48.23.533169 +0000,
0,0,0,0,1,0,1,0,25,0,25,0,32.06471120000015,,,,,,,,,,,,,,,,,,,32.0529047,32.05358149999984,32.053614299999936,air,T.bmp,earth,C.bmp,32.05431439999984,32.0543474000001,mismatch,25,earth,C.bmp,32.055078400000184,32.05511119999983,32.06471120000015,32.181828700000096,32.150006700000176,32.150055000000066,32.181828700000096,32.181828700000096,32.181828700000096,32.181828700000096,32.24962259999984,m,0.05453589999979158,None,32.25103820000004,0,32.251630600000226,,,,,,,,207844,001,2023-11-22_19h48.17.643,ala-gemma,2023.2.3,60.09810414525144,2023-11-22 19h48.23.533169 +0000,
0,0,0,0,1,0,1,0,26,0,26,0,32.26431400000001,,,,,,,,,,,,,,,,,,,32.25269329999992,32.25331529999994,32.25334509999993,air,T.bmp,sky,C.bmp,32.25399819999984,32.25404660000004,mismatch,26,sky,C.bmp,32.254708200000096,32.25473899999997,32.26431400000001,32.38047790000019,32.34857490000013,32.34860359999993,32.38047790000019,32.38047790000019,32.38047790000019,32.38047790000019,32.432274600000255,m,0.04006780000008803,None,32.43356180000001,0,32.43422869999995,,,,,,,,207844,001,2023-11-22_19h48.17.643,ala-gemma,2023.2.3,60.09810414525144,2023-11-22 19h48.23.533169 +0000,
0,0,0,0,1,0,1,0,27,0,27,0,32.447374899999886,,,,,,,,,,,,,,,,,,,32.43518170000016,32.43577069999992,32.43579809999983,air,T.bmp,earth,C.bmp,32.436401599999954,32.43642970000019,mismatch,27,earth,C.bmp,32.43701830000009,32.43704609999986,32.447374899999886,32.563561200000095,32.531359000000066,32.5313857000001,32.563561200000095,32.563561200000095,32.563561200000095,32.563561200000095,32.59918289999996,m,0.02220630000010715,None,32.60052829999995,0,32.60114569999996,,,,,,,,207844,001,2023-11-22_19h48.17.643,ala-gemma,2023.2.3,60.09810414525144,2023-11-22 19h48.23.533169 +0000,
0,0,0,0,1,0,1,0,28,0,28,0,32.61423689999992,,,,,,,,,,,,,,,,,,,32.60213139999996,32.60272050000003,32.60274849999996,air,T.bmp,sky,C.bmp,32.60338009999987,32.6034082000001,mismatch,28,sky,C.bmp,32.60407260000011,32.60410110000021,32.61423689999992,32.729742200000146,32.698233699999946,32.6982622999999,32.729742200000146,32.729742200000146,32.729742200000146,32.729742200000146,32.7815885,m,0.040270500000133325,None,32.78290169999991,0,32.783436000000165,,,,,,,,207844,001,2023-11-22_19h48.17.643,ala-gemma,2023.2.3,60.09810414525144,2023-11-22 19h48.23.533169 +0000,
0,0,0,0,1,0,1,0,29,0,29,0,32.79743800000006,,,,,,,,,,,,,,,,,,,32.78440920000003,32.785016899999846,32.78504460000022,air,T.bmp,sky,S.bmp,32.78563870000016,32.78566660000024,mismatch,29,sky,S.bmp,32.78634779999993,32.78637579999986,32.79743800000006,32.913921800000026,32.8820897999999,32.88212419999991,32.913921800000026,32.913921800000026,32.913921800000026,32.913921800000026,32.96635389999983,m,0.03528050000022631,None,32.9680542000001,0,32.96881459999986,,,,,,,,207844,001,2023-11-22_19h48.17.643,ala-gemma,2023.2.3,60.09810414525144,2023-11-22 19h48.23.533169 +0000,
0,0,0,0,1,0,1,0,30,0,30,0,32.9805738,,,,,,,,,,,,,,,,,,,32.97007789999998,32.97082330000012,32.97085849999985,air,T.bmp,air,S.bmp,32.971607100000256,32.971643100000165,mismatch,30,air,S.bmp,32.97239119999995,32.972427700000026,32.9805738,33.096250000000055,33.06524500000023,33.065280899999834,33.096250000000055,33.096250000000055,33.096250000000055,33.096250000000055,33.148631300000034,m,0.03969629999983226,None,33.1499374,0,33.15055789999997,,,,,,,,207844,001,2023-11-22_19h48.17.643,ala-gemma,2023.2.3,60.09810414525144,2023-11-22 19h48.23.533169 +0000,
0,0,0,0,1,0,1,0,31,0,31,0,33.16277480000008,,,,,,,,,,,,,,,,,,,33.15150110000013,33.152099400000225,33.15213700000004,air,T.bmp,sky,S.bmp,33.15273879999995,33.15276679999988,mismatch,31,sky,S.bmp,33.15337290000025,33.15340079999987,33.16277480000008,33.27906780000012,33.2471759,33.24720389999993,33.27906780000012,33.27906780000012,33.27906780000012,33.27906780000012,33.330830400000195,m,0.03476349999982631,None,33.33212300000014,0,33.33281130000023,,,,,,,,207844,001,2023-11-22_19h48.17.643,ala-gemma,2023.2.3,60.09810414525144,2023-11-22 19h48.23.533169 +0000,
0,0,0,0,1,0,1,0,32,0,32,0,33.34615699999995,,,,,,,,,,,,,,,,,,,33.33376150000004,33.33435959999997,33.33438699999988,air,T.bmp,sky,S.bmp,33.334980200000246,33.33500809999987,mismatch,32,sky,S.bmp,33.3356103000001,33.33563860000004,33.34615699999995,33.46213339999986,33.4308245000002,33.43085259999998,33.46213339999986,33.46213339999986,33.46213339999986,33.46213339999986,33.530821899999864,m,0.05319469999994908,None,33.532124100000146,0,33.53270999999995,,,,,,,,207844,001,2023-11-22_19h48.17.643,ala-gemma,2023.2.3,60.09810414525144,2023-11-22 19h48.23.533169 +0000,
0,0,0,0,1,0,1,0,33,0,33,0,33.54619180000009,,,,,,,,,,,,,,,,,,,33.53366520000009,33.534254000000146,33.534281700000065,air,T.bmp,air,S.bmp,33.53488319999997,33.5349111999999,mismatch,33,air,S.bmp,33.535529000000224,33.53555719999986,33.54619180000009,33.662040499999875,33.63093000000026,33.6309655,33.662040499999875,33.662040499999875,33.662040499999875,33.662040499999875,33.71418730000005,m,0.0429415999997218,None,33.715502000000015,0,33.7160643000002,,,,,,,,207844,001,2023-11-22_19h48.17.643,ala-gemma,2023.2.3,60.09810414525144,2023-11-22 19h48.23.533169 +0000,
0,0,0,0,1,0,1,0,34,0,34,0,33.72944270000016,,,,,,,,,,,,,,,,,,,33.717084800000066,33.717672799999946,33.71770030000016,air,T.bmp,air,S.bmp,33.718306700000085,33.718334700000014,match,34,air,T.bmp,33.71897919999992,33.71900740000001,33.72944270000016,33.82870009999988,33.813695199999984,33.813723499999924,33.82870009999988,33.82870009999988,33.82870009999988,33.82870009999988,33.89715810000007,m,0.05858279999984006,None,33.89845130000003,1,33.899111000000175,,,,,,,,207844,001,2023-11-22_19h48.17.643,ala-gemma,2023.2.3,60.09810414525144,2023-11-22 19h48.23.533169 +0000,
0,0,0,0,1,0,1,0,35,0,35,0,33.912383599999885,,,,,,,,,,,,,,,,,,,33.90005960000008,33.90065159999995,33.90067880000015,air,T.bmp,earth,S.bmp,33.901277400000254,33.901305500000035,mismatch,35,earth,S.bmp,33.9019174,33.90194569999994,33.912383599999885,34.02793969999993,33.99682419999999,33.996850800000175,34.02793969999993,34.02793969999993,34.02793969999993,34.02793969999993,34.08054500000026,m,0.051067699999748584,None,34.08184029999984,0,34.08243390000007,,,,,,,,207844,001,2023-11-22_19h48.17.643,ala-gemma,2023.2.3,60.09810414525144,2023-11-22 19h48.23.533169 +0000,
0,0,0,0,1,0,1,0,36,0,36,0,34.09561789999998,,,,,,,,,,,,,,,,,,,34.08338679999997,34.08396549999998,34.083993400000054,air,T.bmp,earth,T.bmp,34.08470100000022,34.084729199999856,match,36,air,T.bmp,34.085301900000104,34.08532960000002,34.09561789999998,34.211206400000265,34.17917059999991,34.17919729999994,34.211206400000265,34.211206400000265,34.211206400000265,34.211206400000265,34.26408089999995,m,0.049775599999975384,None,34.265708899999936,1,34.26643109999986,,,,,,,,207844,001,2023-11-22_19h48.17.643,ala-gemma,2023.2.3,60.09810414525144,2023-11-22 19h48.23.533169 +0000,
0,0,0,0,1,0,1,0,37,0,37,0,34.27864750000026,,,,,,,,,,,,,,,,,,,34.26766720000023,34.268419300000005,34.26845400000002,air,T.bmp,air,S.bmp,34.2692035,34.26923960000022,mismatch,37,air,S.bmp,34.26996099999997,34.269997299999886,34.27864750000026,34.394526099999894,34.363270100000136,34.36330670000007,34.394526099999894,34.394526099999894,34.394526099999894,34.394526099999894,34.46347990000004,m,0.0517558999999892,None,34.465200000000095,0,34.465906899999936,,,,,,,,207844,001,2023-11-22_19h48.17.643,ala-gemma,2023.2.3,60.09810414525144,2023-11-22 19h48.23.533169 +0000,
0,0,0,0,1,0,1,0,38,0,38,0,34.480125900000075,,,,,,,,,,,,,,,,,,,34.46720349999987,34.46789960000024,34.467935300000136,air,T.bmp,earth,S.bmp,34.468671000000086,34.468706499999826,mismatch,38,earth,S.bmp,34.469426099999964,34.46946209999987,34.480125900000075,,34.577713700000004,34.577734599999985,34.610923000000184,34.610923000000184,34.610923000000184,34.610923000000184,34.62902179999992,m,0.011209099999632599,None,34.630305600000156,0,34.63089130000026,,,,,,,,207844,001,2023-11-22_19h48.17.643,ala-gemma,2023.2.3,60.09810414525144,2023-11-22 19h48.23.533169 +0000,
0,0,0,0,1,0,1,0,39,0,39,0,34.64446369999996,,,,,,,,,,,,,,,,,,,34.63182670000015,34.63239539999995,34.632422700000006,air,T.bmp,air,C.bmp,34.63305420000006,34.63308280000001,mismatch,39,air,C.bmp,34.633673700000145,34.63370220000024,34.64446369999996,34.76051749999988,34.72888030000013,34.728910299999825,34.76051749999988,34.76051749999988,34.76051749999988,34.76051749999988,34.81241490000002,m,0.045391099999960716,None,34.81371219999983,0,34.81430349999982,,,,,,,,207844,001,2023-11-22_19h48.17.643,ala-gemma,2023.2.3,60.09810414525144,2023-11-22 19h48.23.533169 +0000,
0,0,0,0,1,0,1,0,40,0,40,0,34.82758039999999,,,,,,,,,,,,,,,,,,,34.81524160000026,34.81581559999995,34.81584290000001,air,T.bmp,air,C.bmp,34.816537400000016,34.81656520000024,match,40,air,T.bmp,34.817139300000235,34.81716770000003,34.82758039999999,34.94388519999984,34.91339100000005,34.91344280000021,34.94388519999984,34.94388519999984,34.94388519999984,34.94388519999984,34.996652899999845,m,0.049042500000268774,None,34.998178299999836,1,34.99897520000013,,,,,,,,207844,001,2023-11-22_19h48.17.643,ala-gemma,2023.2.3,60.09810414525144,2023-11-22 19h48.23.533169 +0000,
0,0,0,0,1,0,1,0,41,0,41,0,35.0111909000002,,,,,,,,,,,,,,,,,,,35.00010269999984,35.00086680000004,35.00089900000012,air,T.bmp,sky,S.bmp,35.00159960000019,35.00163250000014,match,41,air,T.bmp,35.002329700000246,35.00236330000007,35.0111909000002,35.12692740000011,35.09511359999988,35.095146900000145,35.12692740000011,35.12692740000011,35.12692740000011,35.12692740000011,35.19611739999982,m,0.05740669999977399,None,35.19764750000013,1,35.19845250000026,,,,,,,,207844,001,2023-11-22_19h48.17.643,ala-gemma,2023.2.3,60.09810414525144,2023-11-22 19h48.23.533169 +0000,
0,0,0,0,1,0,1,0,42,0,42,0,35.210870200000045,,,,,,,,,,,,,,,,,,,35.19956809999985,35.200250400000186,35.20028330000014,air,T.bmp,air,S.bmp,35.20108019999998,35.20111330000009,mismatch,42,air,S.bmp,35.20180519999985,35.20183820000011,35.210870200000045,35.32675139999992,35.29497010000023,35.295001800000136,35.32675139999992,35.32675139999992,35.32675139999992,35.32675139999992,35.378492800000004,m,0.04694820000031541,None,35.37983710000026,0,35.380428100000245,,,,,,,,207844,001,2023-11-22_19h48.17.643,ala-gemma,2023.2.3,60.09810414525144,2023-11-22 19h48.23.533169 +0000,
0,0,0,0,1,0,1,0,43,0,43,0,35.39353119999987,,,,,,,,,,,,,,,,,,,35.38139170000022,35.38200659999984,35.38203449999992,air,T.bmp,air,S.bmp,35.3827452999999,35.382773499999985,mismatch,43,air,S.bmp,35.383369799999855,35.38339790000009,35.39353119999987,35.49325230000022,35.47780700000021,35.47783449999997,35.49325230000022,35.49325230000022,35.49325230000022,35.49325230000022,35.578315700000076,m,0.07811609999998836,None,35.57964140000013,0,35.58023719999983,,,,,,,,207844,001,2023-11-22_19h48.17.643,ala-gemma,2023.2.3,60.09810414525144,2023-11-22 19h48.23.533169 +0000,
0,0,0,0,1,0,1,0,44,0,44,0,35.59320590000016,,,,,,,,,,,,,,,,,,,35.58118330000025,35.58177509999996,35.58180309999989,air,T.bmp,air,S.bmp,35.58250080000016,35.58252930000026,match,44,air,T.bmp,35.5831189999999,35.583146999999826,35.59320590000016,35.69323480000003,35.67751780000026,35.67754500000001,35.69323480000003,35.69323480000003,35.69323480000003,35.69323480000003,35.761154499999975,m,0.06424359999982698,None,35.76248859999987,1,35.763063800000054,,,,,,,,207844,001,2023-11-22_19h48.17.643,ala-gemma,2023.2.3,60.09810414525144,2023-11-22 19h48.23.533169 +0000,
0,0,0,0,1,0,1,0,45,0,45,0,35.776092900000094,,,,,,,,,,,,,,,,,,,35.764032399999905,35.76457250000021,35.764600299999984,air,T.bmp,earth,T.bmp,35.76518410000017,35.76521249999996,mismatch,45,earth,T.bmp,35.76578550000022,35.76581350000015,35.776092900000094,35.89243260000012,35.86029589999998,35.86033619999989,35.89243260000012,35.89243260000012,35.89243260000012,35.89243260000012,35.960783699999865,m,0.05267210000010891,None,35.962093500000265,0,35.96268539999983,,,,,,,,207844,001,2023-11-22_19h48.17.643,ala-gemma,2023.2.3,60.09810414525144,2023-11-22 19h48.23.533169 +0000,
0,0,0,0,1,0,1,0,46,0,46,0,35.975727200000165,,,,,,,,,,,,,,,,,,,35.963657499999954,35.96423790000017,35.96426539999993,air,T.bmp,air,C.bmp,35.964876600000025,35.964905100000124,mismatch,46,air,C.bmp,35.965509799999836,35.96553769999991,35.975727200000165,36.09217149999995,36.060575399999834,36.06060370000023,36.09217149999995,36.09217149999995,36.09217149999995,36.09217149999995,36.14386079999986,m,0.04282740000007834,None,36.14518380000027,0,36.14589269999988,,,,,,,,207844,001,2023-11-22_19h48.17.643,ala-gemma,2023.2.3,60.09810414525144,2023-11-22 19h48.23.533169 +0000,
0,0,0,0,1,0,1,0,47,0,47,0,36.15934040000002,,,,,,,,,,,,,,,,,,,36.14685490000011,36.147445399999924,36.14747249999982,air,T.bmp,earth,T.bmp,36.1480732,36.14810119999993,match,47,air,T.bmp,36.14869110000018,36.14871940000012,36.15934040000002,36.25911020000012,36.24339310000005,36.24342149999984,36.25911020000012,36.25911020000012,36.25911020000012,36.25911020000012,36.34369719999995,m,0.07159319999982472,None,36.344986399999925,1,36.34559709999985,,,,,,,,207844,001,2023-11-22_19h48.17.643,ala-gemma,2023.2.3,60.09810414525144,2023-11-22 19h48.23.533169 +0000,
0,0,0,0,1,0,1,0,48,0,48,0,36.35879860000023,,,,,,,,,,,,,,,,,,,36.34656670000004,36.34716079999998,36.34719949999999,air,T.bmp,earth,C.bmp,36.34787619999997,36.34790440000006,match,48,air,T.bmp,36.3485083999999,36.34853650000014,36.35879860000023,36.459030099999836,36.44292180000002,36.44294940000009,36.459030099999836,36.459030099999836,36.459030099999836,36.459030099999836,36.52628619999996,m,0.06244539999988774,None,36.52729750000026,1,36.52775569999994,,,,,,,,207844,001,2023-11-22_19h48.17.643,ala-gemma,2023.2.3,60.09810414525144,2023-11-22 19h48.23.533169 +0000,
0,0,0,0,1,0,1,0,49,0,49,0,36.541674200000216,,,,,,,,,,,,,,,,,,,36.528546200000164,36.528979400000026,36.52900090000003,air,T.bmp,earth,C.bmp,36.52948379999998,36.52950580000015,match,49,air,T.bmp,36.52995550000014,36.52997719999985,36.541674200000216,36.64199370000006,36.626142600000094,36.62617080000018,36.64199370000006,36.64199370000006,36.64199370000006,36.64199370000006,36.724973299999874,m,0.07457119999980932,None,36.725582699999904,1,36.725856999999905,,,,,,,,207844,001,2023-11-22_19h48.17.643,ala-gemma,2023.2.3,60.09810414525144,2023-11-22 19h48.23.533169 +0000,
0,0,0,0,1,0,1,0,50,0,50,0,36.74150450000025,,,,,,,,,,,,,,,,,,,36.72643599999992,36.72671410000021,36.726729200000136,air,T.bmp,sky,C.bmp,36.726988899999924,36.72700050000003,match,50,air,T.bmp,36.72726199999988,36.72727459999987,36.74150450000025,36.85735939999995,36.82600300000013,36.82603139999992,36.85735939999995,36.85735939999995,36.85735939999995,36.85735939999995,36.92473199999995,m,0.06067639999992025,None,36.925314399999934,1,36.925573200000144,,,,,,,,207844,001,2023-11-22_19h48.17.643,ala-gemma,2023.2.3,60.09810414525144,2023-11-22 19h48.23.533169 +0000,
0,0,0,0,1,0,1,0,51,0,51,0,36.941184799999974,,,,,,,,,,,,,,,,,,,36.92622540000002,36.92651010000009,36.926521800000046,air,T.bmp,earth,C.bmp,36.92678220000016,36.92679390000012,match,51,air,T.bmp,36.92704219999996,36.92705950000027,36.941184799999974,37.04138899999998,37.025458399999934,37.02548549999983,37.04138899999998,37.04138899999998,37.04138899999998,37.04138899999998,37.40988319999997,m,0.3605757000000267,None,37.41143460000012,1,37.41211079999994,,,,,,,,207844,001,2023-11-22_19h48.17.643,ala-gemma,2023.2.3,60.09810414525144,2023-11-22 19h48.23.533169 +0000,
0,0,0,0,1,0,1,0,52,0,52,0,37.42415560000018,,,,,,,,,,,,,,,,,,,37.41306190000023,37.41364440000007,37.41367219999984,air,T.bmp,air,C.bmp,37.41429120000021,37.41431909999983,mismatch,52,air,C.bmp,37.41490990000011,37.41493799999989,37.42415560000018,37.54013369999984,37.50807910000003,37.50810619999993,37.54013369999984,37.54013369999984,37.54013369999984,37.54013369999984,37.59251069999982,m,0.03710869999986244,None,37.59380450000026,0,37.59440339999992,,,,,,,,207844,001,2023-11-22_19h48.17.643,ala-gemma,2023.2.3,60.09810414525144,2023-11-22 19h48.23.533169 +0000,
0,0,0,0,1,0,1,0,53,0,53,0,37.60722149999992,,,,,,,,,,,,,,,,,,,37.59535510000023,37.59592650000013,37.59595440000021,air,T.bmp,sky,S.bmp,37.59660050000002,37.59662870000011,mismatch,53,sky,S.bmp,37.59720580000021,37.597233999999844,37.60722149999992,37.72314370000004,37.69173159999991,37.69175959999984,37.72314370000004,37.72314370000004,37.72314370000004,37.72314370000004,37.77548239999987,m,0.043177600000035454,None,37.776799499999925,0,37.77737920000027,,,,,,,,207844,001,2023-11-22_19h48.17.643,ala-gemma,2023.2.3,60.09810414525144,2023-11-22 19h48.23.533169 +0000,
0,0,0,0,1,0,1,0,54,0,54,0,37.79065639999999,,,,,,,,,,,,,,,,,,,37.778335999999854,37.778918800000156,37.778946500000075,air,T.bmp,earth,C.bmp,37.77956660000018,37.77959499999997,match,54,air,T.bmp,37.78020599999991,37.78023429999985,37.79065639999999,37.90637460000016,37.87531900000022,37.875358400000096,37.90637460000016,37.90637460000016,37.90637460000016,37.90637460000016,37.97509769999988,m,0.05937029999995502,None,37.97645990000001,1,37.97706490000019,,,,,,,,207844,001,2023-11-22_19h48.17.643,ala-gemma,2023.2.3,60.09810414525144,2023-11-22 19h48.23.533169 +0000,
0,0,0,0,1,0,1,0,55,0,55,0,37.99002060000021,,,,,,,,,,,,,,,,,,,37.9780080999999,37.978636299999835,37.97868960000005,air,T.bmp,sky,T.bmp,37.9794823000002,37.97951409999996,match,55,air,T.bmp,37.98022549999996,37.98027379999985,37.99002060000021,38.089869100000215,38.07378150000022,38.07380929999999,38.089869100000215,38.089869100000215,38.089869100000215,38.089869100000215,38.17460179999989,m,0.07273229999964315,None,38.17664160000004,1,38.177313199999844,,,,,,,,207844,001,2023-11-22_19h48.17.643,ala-gemma,2023.2.3,60.09810414525144,2023-11-22 19h48.23.533169 +0000,
0,0,0,0,1,0,1,0,56,0,56,0,38.19036180000012,,,,,,,,,,,,,,,,,,,38.17847630000006,38.17905860000019,38.1790860000001,air,T.bmp,air,C.bmp,38.179701900000055,38.17972980000013,mismatch,56,air,C.bmp,38.18039690000023,38.18042490000016,38.19036180000012,38.30581540000003,38.2738331999999,38.27386000000024,38.30581540000003,38.30581540000003,38.30581540000003,38.30581540000003,38.3743942000001,m,0.062285299999985,None,38.375729800000045,0,38.37634130000015,,,,,,,,207844,001,2023-11-22_19h48.17.643,ala-gemma,2023.2.3,60.09810414525144,2023-11-22 19h48.23.533169 +0000,
0,0,0,0,1,0,1,0,57,0,57,0,38.38922249999996,,,,,,,,,,,,,,,,,,,38.377294899999924,38.37787400000025,38.37790159999986,air,T.bmp,sky,C.bmp,38.37850370000024,38.37853180000002,match,57,air,T.bmp,38.379086299999926,38.379127100000005,38.38922249999996,38.48978720000014,38.473437300000114,38.47346460000017,38.48978720000014,38.48978720000014,38.48978720000014,38.48978720000014,38.90690330000007,m,0.4080160000003161,None,38.90818750000017,1,38.90885130000015,,,,,,,,207844,001,2023-11-22_19h48.17.643,ala-gemma,2023.2.3,60.09810414525144,2023-11-22 19h48.23.533169 +0000,
0,0,0,0,1,0,1,0,58,0,58,0,38.922062500000266,,,,,,,,,,,,,,,,,,,38.90979809999999,38.91038230000004,38.910410500000125,air,T.bmp,sky,C.bmp,38.911006199999974,38.91103470000007,mismatch,58,sky,C.bmp,38.9116954000001,38.9117341000001,38.922062500000266,39.03819609999982,39.00644190000003,39.00646540000025,39.03819609999982,39.03819609999982,39.03819609999982,39.03819609999982,39.32330570000022,m,0.2735742999998365,None,39.324952100000246,0,39.32554870000013,,,,,,,,207844,001,2023-11-22_19h48.17.643,ala-gemma,2023.2.3,60.09810414525144,2023-11-22 19h48.23.533169 +0000,
0,0,0,0,1,0,1,0,59,0,59,0,39.33827620000011,,,,,,,,,,,,,,,,,,,39.326535799999874,39.32711199999994,39.32714020000003,air,T.bmp,earth,T.bmp,39.3277535000002,39.32778169999983,mismatch,59,earth,T.bmp,39.32838040000024,39.32840810000016,39.33827620000011,39.45451450000019,39.42231609999999,39.42234409999992,39.45451450000019,39.45451450000019,39.45451450000019,39.45451450000019,40.622369900000194,m,1.1661957999999686,None,40.62364350000007,0,40.62423369999988,,,,,,,,207844,001,2023-11-22_19h48.17.643,ala-gemma,2023.2.3,60.09810414525144,2023-11-22 19h48.23.533169 +0000,
1,0,1,0,0,0,0,0,0,0,0,0,47.06203629999982,,,,44.16591700000026,44.16620379999995,44.166215400000056,44.18160519999992,44.18160519999992,44.18160519999992,44.18160519999992,47.04640840000002,space,2.8575831000002836,None,47.048062500000015,47.04863430000023,47.04866159999983,47.049558499999875,47.05103569999983,47.05163530000027,47.05166310000004,earth,S.bmp,air,C.bmp,47.05227360000026,47.0523019000002,match,0,earth,S.bmp,47.052893999999924,47.05292199999985,47.06203629999982,,47.161250499999824,47.16127099999994,47.1775705,47.1775705,47.1775705,47.1775705,48.22799609999993,m,1.0413727000000108,None,48.22968290000017,1,48.23026990000017,40.62439949999998,40.636547900000096,40.636547900000096,44.16543570000022,space,3.524175000000014,None,207844,001,2023-11-22_19h48.17.643,ala-gemma,2023.2.3,60.09810414525144,2023-11-22 19h48.23.533169 +0000,
1,0,1,0,0,0,0,0,1,0,1,0,48.243232499999976,,,,,,,,,,,,,,,,,,,48.231221300000016,48.2318008000002,48.23182810000026,earth,S.bmp,air,C.bmp,48.23254450000013,48.23257259999991,match,1,earth,S.bmp,48.23314729999993,48.233175800000026,48.243232499999976,48.359341400000176,48.32802949999996,48.32807039999989,48.359341400000176,48.359341400000176,48.359341400000176,48.359341400000176,48.544955800000025,m,0.17287100000021383,None,48.546254599999884,1,48.54686230000016,,,,,,,,207844,001,2023-11-22_19h48.17.643,ala-gemma,2023.2.3,60.09810414525144,2023-11-22 19h48.23.533169 +0000,
1,0,1,0,0,0,0,0,2,0,2,0,48.559870500000216,,,,,,,,,,,,,,,,,,,48.54780230000006,48.54837929999985,48.54840659999991,earth,S.bmp,air,T.bmp,48.549084499999935,48.54911240000001,mismatch,2,air,T.bmp,48.54969849999998,48.549737899999855,48.559870500000216,48.675196900000174,48.64453830000002,48.64456569999993,48.675196900000174,48.675196900000174,48.675196900000174,48.675196900000174,48.71049029999995,m,0.033639100000073086,None,48.71153340000001,0,48.71210190000011,,,,,,,,207844,001,2023-11-22_19h48.17.643,ala-gemma,2023.2.3,60.09810414525144,2023-11-22 19h48.23.533169 +0000,
1,0,1,0,0,0,0,0,3,0,3,0,48.72556990000021,,,,,,,,,,,,,,,,,,,48.712828199999876,48.71325909999996,48.71328070000027,earth,S.bmp,sky,T.bmp,48.71392620000006,48.71394770000006,mismatch,3,sky,T.bmp,48.71440010000015,48.71442200000001,48.72556990000021,48.84161320000021,48.81037070000002,48.81039830000009,48.84161320000021,48.84161320000021,48.84161320000021,48.84161320000021,48.91155370000024,m,0.06687569999985499,None,48.912863500000185,0,48.91358249999985,,,,,,,,207844,001,2023-11-22_19h48.17.643,ala-gemma,2023.2.3,60.09810414525144,2023-11-22 19h48.23.533169 +0000,
1,0,1,0,0,0,0,0,4,0,4,0,48.92606930000011,,,,,,,,,,,,,,,,,,,48.914723100000174,48.91534439999987,48.91538339999988,earth,S.bmp,earth,C.bmp,48.916166800000155,48.91620939999984,mismatch,4,earth,C.bmp,48.91689670000005,48.916939100000036,48.92606930000011,49.04177149999987,49.00986139999986,49.00988869999992,49.04177149999987,49.04177149999987,49.04177149999987,49.04177149999987,49.09427700000015,m,0.04474210000034873,None,49.09559500000023,0,49.09619509999993,,,,,,,,207844,001,2023-11-22_19h48.17.643,ala-gemma,2023.2.3,60.09810414525144,2023-11-22 19h48.23.533169 +0000,
1,0,1,0,0,0,0,0,5,0,5,0,49.108792900000026,,,,,,,,,,,,,,,,,,,49.09715159999996,49.09769300000016,49.09772049999992,earth,S.bmp,earth,C.bmp,49.09832540000025,49.09835359999988,match,5,earth,S.bmp,49.09893580000016,49.098963599999934,49.108792900000026,49.20904539999992,49.19278489999988,49.19281420000016,49.20904539999992,49.20904539999992,49.20904539999992,49.20904539999992,49.26066660000015,m,0.0466630000000805,None,49.26196230000005,1,49.262548400000014,,,,,,,,207844,001,2023-11-22_19h48.17.643,ala-gemma,2023.2.3,60.09810414525144,2023-11-22 19h48.23.533169 +0000,
1,0,1,0,0,0,0,0,6,0,6,0,49.27592760000016,,,,,,,,,,,,,,,,,,,49.2634879000002,49.2640136,49.264041800000086,earth,S.bmp,earth,C.bmp,49.26463960000001,49.264667700000246,match,6,earth,S.bmp,49.265247100000124,49.26527579999993,49.27592760000016,,49.37537239999983,49.375395200000185,49.39166460000024,49.39166460000024,49.39166460000024,49.39166460000024,49.44393390000005,m,0.03587620000007519,None,49.445238300000256,1,49.445867400000225,,,,,,,,207844,001,2023-11-22_19h48.17.643,ala-gemma,2023.2.3,60.09810414525144,2023-11-22 19h48.23.533169 +0000,
1,0,1,0,0,0,0,0,7,0,7,0,49.458841699999994,,,,,,,,,,,,,,,,,,,49.44683759999998,49.44741849999991,49.44744630000014,earth,S.bmp,air,T.bmp,49.44805260000021,49.44808079999984,match,7,earth,S.bmp,49.44868910000014,49.44871740000008,49.458841699999994,49.57438210000009,49.542328,49.54235659999995,49.57438210000009,49.57438210000009,49.57438210000009,49.57438210000009,49.5944528,m,0.01602309999998397,None,49.59577040000022,1,49.596390000000156,,,,,,,,207844,001,2023-11-22_19h48.17.643,ala-gemma,2023.2.3,60.09810414525144,2023-11-22 19h48.23.533169 +0000,
1,0,1,0,0,0,0,0,8,0,8,0,49.60864820000006,,,,,,,,,,,,,,,,,,,49.597349699999995,49.59798640000008,49.59802600000012,earth,S.bmp,air,T.bmp,49.598699300000135,49.598727399999916,mismatch,8,air,T.bmp,49.5993011999999,49.59932939999999,49.60864820000006,49.7244482000001,49.69218120000005,49.69220919999998,49.7244482000001,49.7244482000001,49.7244482000001,49.7244482000001,49.79274669999995,m,0.05109290000018518,None,49.794069500000205,0,49.79462240000021,,,,,,,,207844,001,2023-11-22_19h48.17.643,ala-gemma,2023.2.3,60.09810414525144,2023-11-22 19h48.23.533169 +0000,
1,0,1,0,0,0,0,0,9,0,9,0,49.8077659999999,,,,,,,,,,,,,,,,,,,49.79560050000009,49.79622990000007,49.79626270000017,earth,S.bmp,earth,T.bmp,49.79686949999996,49.796897900000204,mismatch,9,earth,T.bmp,49.79755750000004,49.797585300000264,49.8077659999999,49.92359620000025,49.89272200000005,49.89275140000018,49.92359620000025,49.92359620000025,49.92359620000025,49.92359620000025,49.95997790000001,m,0.033213100000011764,None,49.961263600000166,0,49.96193260000018,,,,,,,,207844,001,2023-11-22_19h48.17.643,ala-gemma,2023.2.3,60.09810414525144,2023-11-22 19h48.23.533169 +0000,
1,0,1,0,0,0,0,0,10,0,10,0,49.97483890000012,,,,,,,,,,,,,,,,,,,49.96288409999988,49.96347990000004,49.963507800000116,earth,S.bmp,sky,C.bmp,49.96410019999985,49.964128399999936,mismatch,10,sky,C.bmp,49.96472210000002,49.96475039999996,49.97483890000012,50.09025040000006,50.059239199999865,50.05927640000027,50.09025040000006,50.09025040000006,50.09025040000006,50.09025040000006,50.1423620999999,m,0.04907069999990199,None,50.143636100000094,0,50.14423889999989,,,,,,,,207844,001,2023-11-22_19h48.17.643,ala-gemma,2023.2.3,60.09810414525144,2023-11-22 19h48.23.533169 +0000,
1,0,1,0,0,0,0,0,11,0,11,0,50.157859200000075,,,,,,,,,,,,,,,,,,,50.14518270000008,50.14576930000021,50.14579660000027,earth,S.bmp,earth,T.bmp,50.14639930000021,50.14642739999999,match,11,earth,S.bmp,50.14701509999986,50.1470432000001,50.157859200000075,50.27339269999993,50.2421889000002,50.24221590000025,50.27339269999993,50.27339269999993,50.27339269999993,50.27339269999993,50.32568279999987,m,0.04636229999960051,None,50.326979100000244,1,50.3275779999999,,,,,,,,207844,001,2023-11-22_19h48.17.643,ala-gemma,2023.2.3,60.09810414525144,2023-11-22 19h48.23.533169 +0000,
1,0,1,0,0,0,0,0,12,0,12,0,50.34084530000018,,,,,,,,,,,,,,,,,,,50.32853900000009,50.32912320000014,50.329160799999954,earth,S.bmp,air,T.bmp,50.32977519999986,50.32981729999983,mismatch,12,air,T.bmp,50.33046969999987,50.33051430000023,50.34084530000018,50.45628230000011,50.424971299999925,50.42499880000014,50.45628230000011,50.45628230000011,50.45628230000011,50.45628230000011,50.50832940000009,m,0.03602220000038869,None,50.509826500000145,0,50.51043260000006,,,,,,,,207844,001,2023-11-22_19h48.17.643,ala-gemma,2023.2.3,60.09810414525144,2023-11-22 19h48.23.533169 +0000,
1,0,1,0,0,0,0,0,13,0,13,0,50.523680199999944,,,,,,,,,,,,,,,,,,,50.51139820000026,50.511996199999885,50.5120237000001,earth,S.bmp,sky,T.bmp,50.51259830000026,50.512626400000045,mismatch,13,sky,T.bmp,50.51321700000017,50.51324609999983,50.523680199999944,50.63965529999996,50.60757539999986,50.607603800000106,50.63965529999996,50.63965529999996,50.63965529999996,50.63965529999996,50.6916411000002,m,0.0361456000000544,None,50.69333030000007,0,50.69405910000023,,,,,,,,207844,001,2023-11-22_19h48.17.643,ala-gemma,2023.2.3,60.09810414525144,2023-11-22 19h48.23.533169 +0000,
1,0,1,0,0,0,0,0,14,0,14,0,50.70720220000021,,,,,,,,,,,,,,,,,,,50.69524510000019,50.69581490000019,50.69584339999983,earth,S.bmp,air,C.bmp,50.69645930000024,50.696487400000024,mismatch,14,air,C.bmp,50.69711460000008,50.697142800000165,50.70720220000021,50.82311889999983,50.79056649999984,50.790594000000056,50.82311889999983,50.82311889999983,50.82311889999983,50.82311889999983,50.85878520000006,m,0.029254000000037195,None,50.86009950000016,0,50.860697600000094,,,,,,,,207844,001,2023-11-22_19h48.17.643,ala-gemma,2023.2.3,60.09810414525144,2023-11-22 19h48.23.533169 +0000,
1,0,1,0,0,0,0,0,15,0,15,0,50.87319609999986,,,,,,,,,,,,,,,,,,,50.861642400000164,50.8622319000001,50.86225939999986,earth,S.bmp,earth,T.bmp,50.862864400000035,50.862892699999975,mismatch,15,earth,T.bmp,50.86345650000021,50.863484399999834,50.87319609999986,50.98940829999992,50.957399299999906,50.95742689999997,50.98940829999992,50.98940829999992,50.98940829999992,50.98940829999992,51.04108439999982,m,0.03803090000019438,None,51.04240410000011,0,51.04301429999987,,,,,,,,207844,001,2023-11-22_19h48.17.643,ala-gemma,2023.2.3,60.09810414525144,2023-11-22 19h48.23.533169 +0000,
1,0,1,0,0,0,0,0,16,0,16,0,51.05615790000002,,,,,,,,,,,,,,,,,,,51.04399509999985,51.04463850000002,51.04466779999984,earth,S.bmp,air,S.bmp,51.04529619999994,51.04533380000021,mismatch,16,air,S.bmp,51.04587750000019,51.04590689999986,51.05615790000002,51.172457900000154,51.140075199999956,51.14010300000018,51.172457900000154,51.172457900000154,51.172457900000154,51.172457900000154,51.2240541000001,m,0.03666309999971418,None,51.22539760000018,0,51.22592140000006,,,,,,,,207844,001,2023-11-22_19h48.17.643,ala-gemma,2023.2.3,60.09810414525144,2023-11-22 19h48.23.533169 +0000,
1,0,1,0,0,0,0,0,17,0,17,0,51.23961259999987,,,,,,,,,,,,,,,,,,,51.22690929999999,51.227521100000104,51.22754900000018,earth,S.bmp,sky,C.bmp,51.22816560000001,51.22819370000025,match,17,earth,S.bmp,51.22884699999986,51.228875100000096,51.23961259999987,51.35559569999987,51.32341750000023,51.323444799999834,51.35559569999987,51.35559569999987,51.35559569999987,51.35559569999987,51.40867870000011,m,0.03748799999993935,None,51.410349300000235,1,51.411076700000194,,,,,,,,207844,001,2023-11-22_19h48.17.643,ala-gemma,2023.2.3,60.09810414525144,2023-11-22 19h48.23.533169 +0000,
1,0,1,0,0,0,0,0,18,0,18,0,51.42289669999991,,,,,,,,,,,,,,,,,,,51.412293299999874,51.41302219999989,51.41305820000025,earth,S.bmp,air,S.bmp,51.413802099999884,51.41383790000009,mismatch,18,air,S.bmp,51.414538900000025,51.414576000000125,51.42289669999991,51.53888749999987,51.507662699999855,51.507697200000166,51.53888749999987,51.53888749999987,51.53888749999987,51.53888749999987,51.59323080000013,m,0.03877760000023045,None,51.59551909999982,0,51.596622800000205,,,,,,,,207844,001,2023-11-22_19h48.17.643,ala-gemma,2023.2.3,60.09810414525144,2023-11-22 19h48.23.533169 +0000,
1,0,1,0,0,0,0,0,19,0,19,0,51.62238759999991,,,,,,,,,,,,,,,,,,,51.598326199999974,51.59942630000023,51.59947650000004,earth,S.bmp,sky,T.bmp,51.60052730000007,51.600579200000084,mismatch,19,sky,T.bmp,51.60158749999982,51.60163990000001,51.62238759999991,,51.706270499999846,51.70630940000001,51.73838119999982,51.73838119999982,51.73838119999982,51.73838119999982,51.77337140000009,m,0.026457599999957893,None,51.77465510000002,0,51.77523599999995,,,,,,,,207844,001,2023-11-22_19h48.17.643,ala-gemma,2023.2.3,60.09810414525144,2023-11-22 19h48.23.533169 +0000,
1,0,1,0,0,0,0,0,20,0,20,0,51.78867089999994,,,,,,,,,,,,,,,,,,,51.77624100000003,51.77679410000019,51.77682210000012,earth,S.bmp,sky,C.bmp,51.77743700000019,51.77746490000027,mismatch,20,sky,C.bmp,51.77805500000022,51.77808379999988,51.78867089999994,51.90522069999997,51.8730544,51.87308320000011,51.90522069999997,51.90522069999997,51.90522069999997,51.90522069999997,51.95904180000025,m,0.03780929999993532,None,51.96055380000007,0,51.961322499999824,,,,,,,,207844,001,2023-11-22_19h48.17.643,ala-gemma,2023.2.3,60.09810414525144,2023-11-22 19h48.23.533169 +0000,
1,0,1,0,0,0,0,0,21,0,21,0,51.97177520000014,,,,,,,,,,,,,,,,,,,51.96242220000022,51.963098900000205,51.963131500000145,earth,S.bmp,sky,T.bmp,51.963826000000154,51.963850699999966,mismatch,21,sky,T.bmp,51.964357700000164,51.96438249999983,51.97177520000014,52.087893299999905,52.05658500000027,52.05662260000008,52.087893299999905,52.087893299999905,52.087893299999905,52.087893299999905,52.14054269999997,m,0.03602740000042104,None,52.14219520000006,0,52.14292460000024,,,,,,,,207844,001,2023-11-22_19h48.17.643,ala-gemma,2023.2.3,60.09810414525144,2023-11-22 19h48.23.533169 +0000,
1,0,1,0,0,0,0,0,22,0,22,0,52.155380199999854,,,,,,,,,,,,,,,,,,,52.14416889999984,52.14491219999991,52.14494760000025,earth,S.bmp,air,S.bmp,52.14570219999996,52.145738000000165,mismatch,22,air,S.bmp,52.146432000000004,52.14648510000006,52.155380199999854,52.271010899999965,52.239495700000134,52.23953100000017,52.271010899999965,52.271010899999965,52.271010899999965,52.271010899999965,52.34042529999988,m,0.051737299999786046,None,52.342028200000186,0,52.34285320000026,,,,,,,,207844,001,2023-11-22_19h48.17.643,ala-gemma,2023.2.3,60.09810414525144,2023-11-22 19h48.23.533169 +0000,
1,0,1,0,0,0,0,0,23,0,23,0,52.3554594000002,,,,,,,,,,,,,,,,,,,52.3440528000001,52.34486100000004,52.34489650000023,earth,S.bmp,sky,S.bmp,52.34563729999991,52.34567250000009,match,23,earth,S.bmp,52.34639560000005,52.34644000000026,52.3554594000002,52.47042730000021,52.439415700000154,52.43945080000003,52.47042730000021,52.47042730000021,52.47042730000021,52.47042730000021,52.522511900000154,m,0.04216529999985141,None,52.52383120000013,1,52.52446680000003,,,,,,,,207844,001,2023-11-22_19h48.17.643,ala-gemma,2023.2.3,60.09810414525144,2023-11-22 19h48.23.533169 +0000,
1,0,1,0,0,0,0,0,24,0,24,0,52.537964900000134,,,,,,,,,,,,,,,,,,,52.525442099999964,52.52605970000013,52.52608719999989,earth,S.bmp,air,S.bmp,52.52669330000026,52.52672140000004,match,24,earth,S.bmp,52.52732229999992,52.52735080000002,52.537964900000134,52.637331899999936,52.62225679999983,52.62228430000005,52.637331899999936,52.637331899999936,52.637331899999936,52.637331899999936,52.70620280000003,m,0.06270219999987603,None,52.707484999999906,1,52.708062900000186,,,,,,,,207844,001,2023-11-22_19h48.17.643,ala-gemma,2023.2.3,60.09810414525144,2023-11-22 19h48.23.533169 +0000,
1,0,1,0,0,0,0,0,25,0,25,0,52.72137870000006,,,,,,,,,,,,,,,,,,,52.70900410000013,52.709585999999945,52.709613999999874,earth,S.bmp,earth,T.bmp,52.71021490000021,52.71024279999983,match,25,earth,S.bmp,52.71085170000015,52.71088080000027,52.72137870000006,52.83728770000016,52.80615570000009,52.806191000000126,52.83728770000016,52.83728770000016,52.83728770000016,52.83728770000016,52.89019039999994,m,0.035624400000415335,None,52.89186229999996,1,52.8925935000002,,,,,,,,207844,001,2023-11-22_19h48.17.643,ala-gemma,2023.2.3,60.09810414525144,2023-11-22 19h48.23.533169 +0000,
1,0,1,0,0,0,0,0,26,0,26,0,52.90446100000008,,,,,,,,,,,,,,,,,,,52.89383249999992,52.894567499999994,52.89460270000018,earth,S.bmp,air,C.bmp,52.895398300000124,52.89543529999992,match,26,earth,S.bmp,52.89617279999993,52.89620909999985,52.90446100000008,53.020316300000104,52.988432099999955,52.988464999999906,53.020316300000104,53.020316300000104,53.020316300000104,53.020316300000104,53.056403000000046,m,0.030107399999906193,None,53.058058600000095,1,53.05880430000025,,,,,,,,207844,001,2023-11-22_19h48.17.643,ala-gemma,2023.2.3,60.09810414525144,2023-11-22 19h48.23.533169 +0000,
1,0,1,0,0,0,0,0,27,0,27,0,53.07119439999997,,,,,,,,,,,,,,,,,,,53.060012200000074,53.06072260000019,53.06077060000007,earth,S.bmp,earth,C.bmp,53.061485000000175,53.061521500000254,mismatch,27,earth,C.bmp,53.062268399999994,53.06230469999991,53.07119439999997,53.170008399999915,53.15488200000027,53.154910499999914,53.170008399999915,53.170008399999915,53.170008399999915,53.170008399999915,53.2387647999999,m,0.06370590000005905,None,53.2401276999999,0,53.24075810000022,,,,,,,,207844,001,2023-11-22_19h48.17.643,ala-gemma,2023.2.3,60.09810414525144,2023-11-22 19h48.23.533169 +0000,
1,0,1,0,0,0,0,0,28,0,28,0,53.254083100000116,,,,,,,,,,,,,,,,,,,53.24174549999998,53.24233510000022,53.24236329999985,earth,S.bmp,sky,T.bmp,53.24298529999987,53.24301349999996,mismatch,28,sky,T.bmp,53.2436788,53.24370679999993,53.254083100000116,53.37010989999999,53.33812850000004,53.33815619999996,53.37010989999999,53.37010989999999,53.37010989999999,53.37010989999999,53.424203900000066,m,0.046644799999739917,None,53.42663300000004,0,53.42778899999985,,,,,,,,207844,001,2023-11-22_19h48.17.643,ala-gemma,2023.2.3,60.09810414525144,2023-11-22 19h48.23.533169 +0000,
1,0,1,0,0,0,0,0,29,0,29,0,53.45356249999986,,,,,,,,,,,,,,,,,,,53.42955269999993,53.43057120000003,53.430621399999836,earth,S.bmp,sky,S.bmp,53.43176630000016,53.43181659999982,match,29,earth,S.bmp,53.43289959999993,53.4329545999999,53.45356249999986,,53.537237000000005,53.5372625,53.56925850000016,53.56925850000016,53.56925850000016,53.56925850000016,53.621597400000155,m,0.04390170000033322,None,53.623162200000024,1,53.62393310000016,,,,,,,,207844,001,2023-11-22_19h48.17.643,ala-gemma,2023.2.3,60.09810414525144,2023-11-22 19h48.23.533169 +0000,
1,0,1,0,0,0,0,0,30,0,30,0,53.6367608999999,,,,,,,,,,,,,,,,,,,53.62505850000025,53.62573930000008,53.62577210000018,earth,S.bmp,sky,T.bmp,53.62647610000022,53.6265214,mismatch,30,sky,T.bmp,53.62720050000007,53.627233499999875,53.6367608999999,53.752406300000075,53.72123220000003,53.72126329999992,53.752406300000075,53.752406300000075,53.752406300000075,53.752406300000075,53.80464660000007,m,0.04561620000004041,None,53.80615570000009,0,53.80684900000006,,,,,,,,207844,001,2023-11-22_19h48.17.643,ala-gemma,2023.2.3,60.09810414525144,2023-11-22 19h48.23.533169 +0000,
1,0,1,0,0,0,0,0,31,0,31,0,53.8198682000002,,,,,,,,,,,,,,,,,,,53.80796469999996,53.80873610000026,53.808769400000074,earth,S.bmp,sky,C.bmp,53.80945460000021,53.80948780000017,match,31,earth,S.bmp,53.81027099999983,53.810303900000235,53.8198682000002,53.93548150000015,53.90420840000024,53.904240299999856,53.93548150000015,53.93548150000015,53.93548150000015,53.93548150000015,53.98781790000021,m,0.047121099999912985,None,53.989336600000115,1,53.990034299999934,,,,,,,,207844,001,2023-11-22_19h48.17.643,ala-gemma,2023.2.3,60.09810414525144,2023-11-22 19h48.23.533169 +0000,
1,0,1,0,0,0,0,0,32,0,32,0,54.00322970000025,,,,,,,,,,,,,,,,,,,53.99117290000004,53.99181580000004,53.99184800000012,earth,S.bmp,air,T.bmp,53.99255260000018,53.99258520000012,mismatch,32,air,T.bmp,53.99330520000012,53.993337899999915,54.00322970000025,54.118815299999824,54.08675529999982,54.08678719999989,54.118815299999824,54.118815299999824,54.118815299999824,54.118815299999824,54.17032870000003,m,0.043598799999926996,None,54.17162039999994,0,54.172249600000214,,,,,,,,207844,001,2023-11-22_19h48.17.643,ala-gemma,2023.2.3,60.09810414525144,2023-11-22 19h48.23.533169 +0000,
1,0,1,0,0,0,0,0,33,0,33,0,54.185973600000125,,,,,,,,,,,,,,,,,,,54.17320180000024,54.173782500000016,54.17381999999998,earth,S.bmp,sky,S.bmp,54.17441580000013,54.17444380000006,match,33,earth,S.bmp,54.17504540000027,54.175073599999905,54.185973600000125,54.30158829999982,54.26985319999994,54.26987969999982,54.30158829999982,54.30158829999982,54.30158829999982,54.30158829999982,54.35410589999992,m,0.040029600000252685,None,54.35541790000025,1,54.35603020000008,,,,,,,,207844,001,2023-11-22_19h48.17.643,ala-gemma,2023.2.3,60.09810414525144,2023-11-22 19h48.23.533169 +0000,
1,0,1,0,0,0,0,0,34,0,34,0,54.3688559000002,,,,,,,,,,,,,,,,,,,54.3569978999999,54.35758020000003,54.357607400000234,earth,S.bmp,earth,T.bmp,54.35822259999986,54.358250300000236,mismatch,34,earth,T.bmp,54.35893350000015,54.35896189999994,54.3688559000002,54.484907399999884,54.45307980000007,54.45310840000002,54.484907399999884,54.484907399999884,54.484907399999884,54.484907399999884,54.537016499999936,m,0.042024899999887566,None,54.53816809999989,0,54.538765799999965,,,,,,,,207844,001,2023-11-22_19h48.17.643,ala-gemma,2023.2.3,60.09810414525144,2023-11-22 19h48.23.533169 +0000,
1,0,1,0,0,0,0,0,35,0,35,0,54.55100470000025,,,,,,,,,,,,,,,,,,,54.539604000000054,54.540236599999844,54.540258099999846,earth,S.bmp,sky,C.bmp,54.54074410000021,54.54076630000009,mismatch,35,sky,C.bmp,54.54122640000014,54.54124839999986,54.55100470000025,54.66752550000001,54.63563490000024,54.63566200000014,54.66752550000001,54.66752550000001,54.66752550000001,54.66752550000001,54.71949540000014,m,0.041134300000067014,None,54.72080610000012,0,54.72139890000017,,,,,,,,207844,001,2023-11-22_19h48.17.643,ala-gemma,2023.2.3,60.09810414525144,2023-11-22 19h48.23.533169 +0000,
1,0,1,0,0,0,0,0,36,0,36,0,54.73451479999994,,,,,,,,,,,,,,,,,,,54.72236890000022,54.722953999999845,54.72298159999991,earth,S.bmp,sky,S.bmp,54.72358200000008,54.72361020000017,mismatch,36,sky,S.bmp,54.72418400000015,54.724239300000136,54.73451479999994,54.83447530000012,54.81912139999986,54.819150100000115,54.83447530000012,54.83447530000012,54.83447530000012,54.83447530000012,54.91917259999991,m,0.06984529999999722,None,54.920486699999856,0,54.92108589999998,,,,,,,,207844,001,2023-11-22_19h48.17.643,ala-gemma,2023.2.3,60.09810414525144,2023-11-22 19h48.23.533169 +0000,
1,0,1,0,0,0,0,0,37,0,37,0,54.93426950000003,,,,,,,,,,,,,,,,,,,54.92203470000004,54.922613100000035,54.92264060000025,earth,S.bmp,sky,S.bmp,54.92325320000009,54.92328069999985,mismatch,37,sky,S.bmp,54.92383229999996,54.923860500000046,54.93426950000003,55.035143099999914,55.018504499999835,55.01853370000026,55.035143099999914,55.035143099999914,55.035143099999914,55.035143099999914,55.10312609999983,m,0.06259890000001178,None,55.104831900000136,0,55.10557410000001,,,,,,,,207844,001,2023-11-22_19h48.17.643,ala-gemma,2023.2.3,60.09810414525144,2023-11-22 19h48.23.533169 +0000,
1,0,1,0,0,0,0,0,38,0,38,0,55.118219899999986,,,,,,,,,,,,,,,,,,,55.10685650000005,55.107606900000064,55.10764340000014,earth,S.bmp,earth,T.bmp,55.108379499999955,55.108430000000226,mismatch,38,earth,T.bmp,55.10926950000021,55.10930640000015,55.118219899999986,55.233885999999984,55.202642000000196,55.20267620000004,55.233885999999984,55.233885999999984,55.233885999999984,55.233885999999984,55.286242799999854,m,0.049637499999789725,None,55.28753649999999,0,55.28806769999983,,,,,,,,207844,001,2023-11-22_19h48.17.643,ala-gemma,2023.2.3,60.09810414525144,2023-11-22 19h48.23.533169 +0000,
1,0,1,0,0,0,0,0,39,0,39,0,55.30073450000009,,,,,,,,,,,,,,,,,,,55.28901989999986,55.28960129999996,55.28962869999987,earth,S.bmp,air,T.bmp,55.290245700000014,55.290273999999954,mismatch,39,air,T.bmp,55.290871100000004,55.29089930000009,55.30073450000009,55.41694940000025,55.384957900000245,55.385001399999965,55.41694940000025,55.41694940000025,55.41694940000025,55.41694940000025,55.48549839999987,m,0.05930850000004284,None,55.486807000000226,0,55.48741169999994,,,,,,,,207844,001,2023-11-22_19h48.17.643,ala-gemma,2023.2.3,60.09810414525144,2023-11-22 19h48.23.533169 +0000,
1,0,1,0,0,0,0,0,40,0,40,0,55.500740999999834,,,,,,,,,,,,,,,,,,,55.48836519999986,55.488944900000206,55.48897249999982,earth,S.bmp,earth,C.bmp,55.48957590000009,55.48960420000003,mismatch,40,earth,C.bmp,55.49021559999983,55.49024390000022,55.500740999999834,55.616501999999855,55.584696299999905,55.58472470000015,55.616501999999855,55.616501999999855,55.616501999999855,55.616501999999855,55.68500519999998,m,0.05368899999984933,None,55.68631050000022,0,55.68690349999997,,,,,,,,207844,001,2023-11-22_19h48.17.643,ala-gemma,2023.2.3,60.09810414525144,2023-11-22 19h48.23.533169 +0000,
1,0,1,0,0,0,0,0,41,0,41,0,55.700044100000014,,,,,,,,,,,,,,,,,,,55.68785310000021,55.688446900000145,55.68847480000022,earth,S.bmp,air,S.bmp,55.68908020000026,55.689108399999895,match,41,earth,S.bmp,55.689646000000266,55.68967389999989,55.700044100000014,55.80007190000015,55.78466890000027,55.78469700000005,55.80007190000015,55.80007190000015,55.80007190000015,55.80007190000015,55.884679600000254,m,0.06871579999960886,None,55.88604710000027,1,55.88663489999999,,,,,,,,207844,001,2023-11-22_19h48.17.643,ala-gemma,2023.2.3,60.09810414525144,2023-11-22 19h48.23.533169 +0000,
1,0,1,0,0,0,0,0,42,0,42,0,55.89965239999992,,,,,,,,,,,,,,,,,,,55.88760730000013,55.888264100000015,55.88829190000024,earth,S.bmp,earth,C.bmp,55.88890450000008,55.88893270000017,mismatch,42,earth,C.bmp,55.88960899999984,55.88963740000008,55.89965239999992,55.99961949999988,55.98417789999985,55.984205499999916,55.99961949999988,55.99961949999988,55.99961949999988,55.99961949999988,56.067886199999975,m,0.06157310000025973,None,56.0691855,0,56.0697653000002,,,,,,,,207844,001,2023-11-22_19h48.17.643,ala-gemma,2023.2.3,60.09810414525144,2023-11-22 19h48.23.533169 +0000,
1,0,1,0,0,0,0,0,43,0,43,0,56.083122,,,,,,,,,,,,,,,,,,,56.07073219999984,56.07131819999995,56.07134610000003,earth,S.bmp,earth,C.bmp,56.07195300000012,56.07198130000006,match,43,earth,S.bmp,56.072583600000144,56.07261180000023,56.083122,56.183238300000085,56.167282800000066,56.16731010000012,56.183238300000085,56.183238300000085,56.183238300000085,56.183238300000085,56.26742090000016,m,0.06834029999981794,None,56.26873530000012,1,56.26932360000001,,,,,,,,207844,001,2023-11-22_19h48.17.643,ala-gemma,2023.2.3,60.09810414525144,2023-11-22 19h48.23.533169 +0000,
1,0,1,0,0,0,0,0,44,0,44,0,56.2827913000001,,,,,,,,,,,,,,,,,,,56.27026119999982,56.27088730000014,56.2709189000002,earth,S.bmp,sky,T.bmp,56.27151660000027,56.2715447999999,match,44,earth,S.bmp,56.27210430000014,56.27213260000008,56.2827913000001,56.382920900000045,56.36697129999993,56.36699869999984,56.382920900000045,56.382920900000045,56.382920900000045,56.382920900000045,56.45116880000023,m,0.058947600000010425,None,56.45248979999997,1,56.45310909999989,,,,,,,,207844,001,2023-11-22_19h48.17.643,ala-gemma,2023.2.3,60.09810414525144,2023-11-22 19h48.23.533169 +0000,
1,0,1,0,0,0,0,0,45,0,45,0,56.466283300000214,,,,,,,,,,,,,,,,,,,56.45408720000023,56.45467430000008,56.454701900000146,earth,S.bmp,earth,C.bmp,56.455323000000135,56.455351000000064,mismatch,45,earth,C.bmp,56.45607299999983,56.45610089999991,56.466283300000214,56.58204999999998,56.55089409999982,56.55093100000022,56.58204999999998,56.58204999999998,56.58204999999998,56.58204999999998,56.651804600000105,m,0.059056799999780196,None,56.653512299999875,0,56.65427009999985,,,,,,,,207844,001,2023-11-22_19h48.17.643,ala-gemma,2023.2.3,60.09810414525144,2023-11-22 19h48.23.533169 +0000,
1,0,1,0,0,0,0,0,46,0,46,0,56.666277400000126,,,,,,,,,,,,,,,,,,,56.65549790000023,56.65624990000015,56.65628629999992,earth,S.bmp,earth,C.bmp,56.65704300000016,56.657080999999835,match,46,earth,S.bmp,56.657949400000234,56.657986000000164,56.666277400000126,,56.76578139999992,56.76580509999985,56.782467200000156,56.782467200000156,56.782467200000156,56.782467200000156,56.85020990000021,m,0.05148770000005243,None,56.851507700000184,1,56.852129100000184,,,,,,,,207844,001,2023-11-22_19h48.17.643,ala-gemma,2023.2.3,60.09810414525144,2023-11-22 19h48.23.533169 +0000,
1,0,1,0,0,0,0,0,47,0,47,0,56.86541260000013,,,,,,,,,,,,,,,,,,,56.85307090000015,56.853650200000175,56.853690500000084,earth,S.bmp,air,C.bmp,56.85435450000023,56.854381900000135,mismatch,47,air,C.bmp,56.854965099999845,56.85499290000007,56.86541260000013,56.981839200000195,56.94970860000012,56.94973560000017,56.981839200000195,56.981839200000195,56.981839200000195,56.981839200000195,57.03335100000004,m,0.03969920000008642,None,57.03467899999987,0,57.03527470000017,,,,,,,,207844,001,2023-11-22_19h48.17.643,ala-gemma,2023.2.3,60.09810414525144,2023-11-22 19h48.23.533169 +0000,
1,0,1,0,0,0,0,0,48,0,48,0,57.048300400000244,,,,,,,,,,,,,,,,,,,57.036223600000085,57.03680050000003,57.03682780000008,earth,S.bmp,air,C.bmp,57.03740599999992,57.03743369999984,mismatch,48,air,C.bmp,57.03801320000002,57.03804059999993,57.048300400000244,57.16465210000024,57.13317619999998,57.13320419999991,57.16465210000024,57.16465210000024,57.16465210000024,57.16465210000024,57.233424900000045,m,0.05506500000001324,None,57.23473539999986,0,57.23533520000001,,,,,,,,207844,001,2023-11-22_19h48.17.643,ala-gemma,2023.2.3,60.09810414525144,2023-11-22 19h48.23.533169 +0000,
1,0,1,0,0,0,0,0,49,0,49,0,57.24835089999988,,,,,,,,,,,,,,,,,,,57.236303300000145,57.23687759999984,57.23690510000006,earth,S.bmp,sky,C.bmp,57.23750569999993,57.237533299999996,mismatch,49,sky,C.bmp,57.23808850000023,57.23811639999985,57.24835089999988,57.36463069999991,57.33278310000014,57.33281029999989,57.36463069999991,57.36463069999991,57.36463069999991,57.36463069999991,57.41697419999991,m,0.03783049999992727,None,57.41827220000005,0,57.418875299999854,,,,,,,,207844,001,2023-11-22_19h48.17.643,ala-gemma,2023.2.3,60.09810414525144,2023-11-22 19h48.23.533169 +0000,
