blocks.thisRepN,blocks.thisTrialN,blocks.thisN,blocks.thisIndex,trials.thisRepN,trials.thisTrialN,trials.thisN,trials.thisIndex,thisRow.t,notes,choose_match_pair.started,choose_match_pair.stopped,trial_list.started,trial_list.stopped,learn_me.started,text_2.started,text.started,image.started,dismiss_learn.started,learn_me.stopped,dismiss_learn.keys,dismiss_learn.rt,dismiss_learn.duration,choose_mismatch_pair.started,match_label,match_shape,mismatch_label,mismatch_shape,choose_mismatch_pair.stopped,choose_trial_type.started,trial_type,trial_index,trial_label,trial_shape,choose_trial_type.stopped,fix_cross.started,text_4.started,fix_cross.stopped,put.started,put_label.started,put_shape.started,trial_response.started,put.stopped,trial_response.keys,trial_response.rt,trial_response.duration,eval.started,acc,eval.stopped,text_4.stopped,rest_period.started,text_3.started,rest_period_kb.started,rest_period.stopped,rest_period_kb.keys,rest_period_kb.rt,rest_period_kb.duration,participant,session,date,expName,psychopyVersion,frameRate,expStart,
,,,,,,,,,,0.018839500000467524,0.019233999999414664,0.01924739999958547,0.019496799999615178,0.01951039999948989,0.05244449999918288,0.05244449999918288,0.05244449999918288,0.05244449999918288,9.945401799999672,space,9.887000299999272,None,,,,,,,,,,,,,,,,,,,,,,,,,,,,,,,,,,,328449,001,2023-11-21_15h48.00.018,ala,2023.2.3,59.95685504685459,2023-11-21 15h48.05.298325 +0000,
0,0,0,0,0,0,0,0,9.96303110000008,,,,,,,,,,,,,,,9.947275799999261,£50,D.bmp,£50,P.bmp,9.94757319999917,9.947587200000271,mismatch,0,£50,P.bmp,9.947844700000132,9.947857799999838,9.96303110000008,10.461852499998713,10.461864699998841,10.479248100000405,10.479248100000405,10.479248100000405,14.015788900000189,m,3.5324837999996817,None,14.016616299999441,0,14.016860499999893,,,,,,,,,328449,001,2023-11-21_15h48.00.018,ala,2023.2.3,59.95685504685459,2023-11-21 15h48.05.298325 +0000,
0,0,0,0,1,0,1,0,14.031786100000318,,,,,,,,,,,,,,,14.01728919999914,£50,D.bmp,£100,O.bmp,14.017555500000526,14.01756849999947,mismatch,1,£100,O.bmp,14.017871099998956,14.017883900000015,14.031786100000318,14.5158524999988,14.51586429999952,14.532721300000048,14.532721300000048,14.532721300000048,15.350388499999099,n,0.8146182999989833,None,15.350997100000313,1,15.351250800000344,14.532721300000048,,,,,,,,328449,001,2023-11-21_15h48.00.018,ala,2023.2.3,59.95685504685459,2023-11-21 15h48.05.298325 +0000,
0,0,0,0,2,0,2,0,15.366352099999858,,,,,,,,,,,,,,,15.351680599998872,£50,D.bmp,£100,O.bmp,15.351945500000511,15.351958499999455,mismatch,2,£100,O.bmp,15.352215699998851,15.352228199999445,15.366352099999858,15.850432600000204,15.850444499999867,15.867275700000391,15.867275700000391,15.867275700000391,16.151637299999493,m,0.2804704000009224,None,16.152865899999597,0,16.15331890000016,15.867275700000391,,,,,,,,328449,001,2023-11-21_15h48.00.018,ala,2023.2.3,59.95685504685459,2023-11-21 15h48.05.298325 +0000,
0,0,0,0,3,0,3,0,16.167256599999746,,,,,,,,,,,,,,,16.154185100000177,£50,D.bmp,£0,O.bmp,16.154691399999138,16.15471609999986,match,3,£50,D.bmp,16.15516899999966,16.15519349999886,16.167256599999746,16.65152510000007,16.651546499999313,16.668150199999218,16.668150199999218,16.668150199999218,17.069347499998912,n,0.38468509999984235,None,17.070494800000233,0,17.070957899999485,16.668150199999218,,,,,,,,328449,001,2023-11-21_15h48.00.018,ala,2023.2.3,59.95685504685459,2023-11-21 15h48.05.298325 +0000,
0,0,0,0,4,0,4,0,17.08470440000019,,,,,,,,,,,,,,,17.071806500000093,£50,D.bmp,£100,D.bmp,17.07228269999905,17.072307599999476,match,4,£50,D.bmp,17.07276710000042,17.07279170000038,17.08470440000019,17.568688499999553,17.568701399999554,17.585420199999135,17.585420199999135,17.585420199999135,17.902672399999574,m,0.30676040000071225,None,17.903336800000034,1,17.903611300000193,17.585420199999135,,,,,,,,328449,001,2023-11-21_15h48.00.018,ala,2023.2.3,59.95685504685459,2023-11-21 15h48.05.298325 +0000,
0,0,0,0,5,0,5,0,17.918689399999494,,,,,,,,,,,,,,,17.904088699999193,£50,D.bmp,£100,D.bmp,17.904377400000158,17.904391599999144,mismatch,5,£100,D.bmp,17.904668699999092,17.904682700000194,17.918689399999494,18.40274649999992,18.402759399999923,18.419584199999008,18.419584199999008,18.419584199999008,18.720123199998852,n,0.29578440000113915,None,18.720788299999185,1,18.721065100000487,18.419584199999008,,,,,,,,328449,001,2023-11-21_15h48.00.018,ala,2023.2.3,59.95685504685459,2023-11-21 15h48.05.298325 +0000,
0,0,0,0,6,0,6,0,18.736085000000458,,,,,,,,,,,,,,,18.721544399999402,£50,D.bmp,£0,D.bmp,18.721830799999225,18.721845099998973,mismatch,6,£0,D.bmp,18.722120700000232,18.722134599998753,18.736085000000458,19.220168899999408,19.22018190000017,19.237031799999386,19.237031799999386,19.237031799999386,19.537473200000022,m,0.294600300001548,None,19.538145799999256,0,19.538422300000093,19.237031799999386,,,,,,,,328449,001,2023-11-21_15h48.00.018,ala,2023.2.3,59.95685504685459,2023-11-21 15h48.05.298325 +0000,
0,0,0,0,7,0,7,0,19.553487799999857,,,,,,,,,,,,,,,19.538905100000193,£50,D.bmp,£50,O.bmp,19.5391939000001,19.539208199999848,mismatch,7,£50,O.bmp,19.539485699999204,19.539499499998783,19.553487799999857,20.037951399999656,20.03796539999894,20.0545005999993,20.0545005999993,20.0545005999993,20.338295199999266,n,0.26904499999909604,None,20.33892139999989,1,20.33917459999975,20.0545005999993,,,,,,,,328449,001,2023-11-21_15h48.00.018,ala,2023.2.3,59.95685504685459,2023-11-21 15h48.05.298325 +0000,
0,0,0,0,8,0,8,0,20.354251299999305,,,,,,,,,,,,,,,20.339603700000225,£50,D.bmp,£50,O.bmp,20.33987100000013,20.33988429999954,mismatch,8,£50,O.bmp,20.34013699999923,20.340149999999994,20.354251299999305,20.83833439999944,20.8383460999994,20.855142599999454,20.855142599999454,20.855142599999454,20.938867400000163,m,0.07650099999955273,None,20.93944779999947,0,20.939723800000138,20.855142599999454,,,,,,,,328449,001,2023-11-21_15h48.00.018,ala,2023.2.3,59.95685504685459,2023-11-21 15h48.05.298325 +0000,
0,0,0,0,9,0,9,0,20.954760200000237,,,,,,,,,,,,,,,20.940137600000526,£50,D.bmp,£0,P.bmp,20.940436999999292,20.940449300000182,match,9,£50,D.bmp,20.940722299999834,20.940735099999074,20.954760200000237,21.438936299999114,21.438948600000003,21.455600199999026,21.455600199999026,21.455600199999026,21.672904999999446,n,0.21251330000086455,None,21.673488599999473,0,21.673738800000137,21.455600199999026,,,,,,,,328449,001,2023-11-21_15h48.00.018,ala,2023.2.3,59.95685504685459,2023-11-21 15h48.05.298325 +0000,
0,0,0,0,10,0,10,0,21.688840900000287,,,,,,,,,,,,,,,21.674159099999088,£50,D.bmp,£50,O.bmp,21.674423000000388,21.674436100000094,mismatch,10,£50,O.bmp,21.674688799999785,21.674701699999787,21.688840900000287,22.17293400000017,22.1729452999989,22.18982599999981,22.18982599999981,22.18982599999981,22.49016859999938,n,0.286342200000945,None,22.49075079999966,1,22.49103019999893,22.18982599999981,,,,,,,,328449,001,2023-11-21_15h48.00.018,ala,2023.2.3,59.95685504685459,2023-11-21 15h48.05.298325 +0000,
0,0,0,0,11,0,11,0,22.506189699999595,,,,,,,,,,,,,,,22.49145200000021,£50,D.bmp,£50,O.bmp,22.491717099999732,22.491729999999734,match,11,£50,D.bmp,22.49198499999875,22.491997699999047,22.506189699999595,22.99042129999907,22.99043299999903,23.00700929999948,23.00700929999948,23.00700929999948,23.041041899999982,m,0.02244319999954314,None,23.041658299998744,1,23.041914100000213,23.00700929999948,,,,,,,,328449,001,2023-11-21_15h48.00.018,ala,2023.2.3,59.95685504685459,2023-11-21 15h48.05.298325 +0000,
0,0,0,0,12,0,12,0,23.05669680000028,,,,,,,,,,,,,,,23.042335500000263,£50,D.bmp,£0,O.bmp,23.042626200000086,23.042639100000088,match,12,£50,D.bmp,23.042894099999103,23.0429067999994,23.05669680000028,23.540826200000083,23.54083840000021,23.557608999999502,23.557608999999502,23.557608999999502,23.641279100000247,m,0.0701177999999345,None,23.641870600000402,1,23.64212939999925,23.557608999999502,,,,,,,,328449,001,2023-11-21_15h48.00.018,ala,2023.2.3,59.95685504685459,2023-11-21 15h48.05.298325 +0000,
0,0,0,0,13,0,13,0,23.657080099999803,,,,,,,,,,,,,,,23.64254710000023,£50,D.bmp,£0,O.bmp,23.64281089999895,23.642823899999712,mismatch,13,£0,O.bmp,23.643070699999953,23.64308340000025,23.657080099999803,24.14129529999991,24.141307399999278,24.15807119999954,24.15807119999954,24.15807119999954,24.391954499998974,m,0.229666700000962,None,24.39255090000006,0,24.39280829999916,24.15807119999954,,,,,,,,328449,001,2023-11-21_15h48.00.018,ala,2023.2.3,59.95685504685459,2023-11-21 15h48.05.298325 +0000,
0,0,0,0,14,0,14,0,24.407985899999403,,,,,,,,,,,,,,,24.39323759999934,£50,D.bmp,£0,O.bmp,24.39351390000047,24.393526800000473,mismatch,14,£0,O.bmp,24.393779699999868,24.393792699998812,24.407985899999403,24.89204830000017,24.89206009999907,24.908886499999426,24.908886499999426,24.908886499999426,24.959083899999314,m,0.04750389999935578,None,24.959682799999428,0,24.959938899999543,24.908886499999426,,,,,,,,328449,001,2023-11-21_15h48.00.018,ala,2023.2.3,59.95685504685459,2023-11-21 15h48.05.298325 +0000,
0,0,0,0,15,0,15,0,24.975155299998733,,,,,,,,,,,,,,,24.960373699999764,£50,D.bmp,£0,P.bmp,24.9606404999995,24.960653699999966,mismatch,15,£0,P.bmp,24.960914799999955,24.960927699999957,24.975155299998733,25.45918139999958,25.459192899999834,25.475992199999382,25.475992199999382,25.475992199999382,25.759950599998774,m,0.2798892999999225,None,25.760557399999016,0,25.760812200000146,25.475992199999382,,,,,,,,328449,001,2023-11-21_15h48.00.018,ala,2023.2.3,59.95685504685459,2023-11-21 15h48.05.298325 +0000,
0,0,0,0,16,0,16,0,25.775868400000036,,,,,,,,,,,,,,,25.761230899999646,£50,D.bmp,£0,D.bmp,25.76149609999993,25.761509099998875,mismatch,16,£0,D.bmp,25.7617637000003,25.761776299999838,25.775868400000036,26.260105499999554,26.26011709999875,26.27680379999947,26.27680379999947,26.27680379999947,26.443872199999532,n,0.15154810000058205,None,26.44445540000015,1,26.444707499998913,26.27680379999947,,,,,,,,328449,001,2023-11-21_15h48.00.018,ala,2023.2.3,59.95685504685459,2023-11-21 15h48.05.298325 +0000,
0,0,0,0,17,0,17,0,26.459875099999408,,,,,,,,,,,,,,,26.44512229999964,£50,D.bmp,£100,P.bmp,26.445386999999755,26.44540009999946,match,17,£50,D.bmp,26.445656099998814,26.445668799999112,26.459875099999408,26.943951899998865,26.943963699999586,26.960712899999635,26.960712899999635,26.960712899999635,26.97778130000006,m,0.010729600000559003,None,26.978381900000386,1,26.97865879999881,26.960712899999635,,,,,,,,328449,001,2023-11-21_15h48.00.018,ala,2023.2.3,59.95685504685459,2023-11-21 15h48.05.298325 +0000,
0,0,0,0,18,0,18,0,26.993551399998978,,,,,,,,,,,,,,,26.97907490000034,£50,D.bmp,£0,D.bmp,26.979337699998723,26.9793525999994,mismatch,18,£0,D.bmp,26.979607399998713,26.979620299998714,26.993551399998978,27.47776840000006,27.477780400000483,27.49462130000029,27.49462130000029,27.49462130000029,27.52828799999952,m,0.021522699998968164,None,27.52889409999989,0,27.52916439999899,27.49462130000029,,,,,,,,328449,001,2023-11-21_15h48.00.018,ala,2023.2.3,59.95685504685459,2023-11-21 15h48.05.298325 +0000,
0,0,0,0,19,0,19,0,27.544168299999,,,,,,,,,,,,,,,27.529582999999548,£50,D.bmp,£50,O.bmp,27.529847899999368,27.529860700000427,mismatch,19,£50,O.bmp,27.5301144999994,27.530127199999697,27.544168299999,28.028255799999897,28.02826780000032,28.04508159999932,28.04508159999932,28.04508159999932,28.062348600000405,m,0.014168199999403441,None,28.062958599999547,0,28.06321989999924,28.04508159999932,,,,,,,,328449,001,2023-11-21_15h48.00.018,ala,2023.2.3,59.95685504685459,2023-11-21 15h48.05.298325 +0000,
0,0,0,0,20,0,20,0,28.078058899998723,,,,,,,,,,,,,,,28.06363649999912,£50,D.bmp,£50,P.bmp,28.06390719999945,28.06392020000021,mismatch,20,£50,P.bmp,28.0641899000002,28.06420210000033,28.078058899998723,28.561948999999004,28.56196110000019,28.57893949999925,28.57893949999925,28.57893949999925,28.61269639999955,m,0.03306749999865133,None,28.613296100000298,0,28.613582799998767,28.57893949999925,,,,,,,,328449,001,2023-11-21_15h48.00.018,ala,2023.2.3,59.95685504685459,2023-11-21 15h48.05.298325 +0000,
0,0,0,0,21,0,21,0,28.62850140000046,,,,,,,,,,,,,,,28.61401889999979,£50,D.bmp,£50,P.bmp,28.614285499999824,28.61429870000029,mismatch,21,£50,P.bmp,28.614551399999982,28.614564199999222,28.62850140000046,29.112670599999547,29.11268259999997,29.129358399999546,29.129358399999546,29.129358399999546,29.179665800000294,m,0.04257499999948777,None,29.180247399999644,0,29.180497299999843,29.129358399999546,,,,,,,,328449,001,2023-11-21_15h48.00.018,ala,2023.2.3,59.95685504685459,2023-11-21 15h48.05.298325 +0000,
0,0,0,0,22,0,22,0,29.195615599999655,,,,,,,,,,,,,,,29.180915599999935,£50,D.bmp,£0,D.bmp,29.18117639999946,29.181189499999164,match,22,£50,D.bmp,29.181437499999447,29.18145050000021,29.195615599999655,29.679722299999412,29.67973399999937,29.696535400000357,29.696535400000357,29.696535400000357,29.83040809999875,n,0.13209470000037982,None,29.831015199999456,0,29.831271499999275,29.696535400000357,,,,,,,,328449,001,2023-11-21_15h48.00.018,ala,2023.2.3,59.95685504685459,2023-11-21 15h48.05.298325 +0000,
0,0,0,0,23,0,23,0,29.84624669999903,,,,,,,,,,,,,,,29.83172469999954,£50,D.bmp,£100,O.bmp,29.831991900000503,29.83200500000021,mismatch,23,£100,O.bmp,29.832260199998927,29.83227319999969,29.84624669999903,30.330378599999676,30.33039099999951,30.34717599999931,30.34717599999931,30.34717599999931,30.397270699999353,n,0.048315500000171596,None,30.397853399999804,1,30.398108899998988,30.34717599999931,,,,,,,,328449,001,2023-11-21_15h48.00.018,ala,2023.2.3,59.95685504685459,2023-11-21 15h48.05.298325 +0000,
0,0,0,0,24,0,24,0,30.413494000000355,,,,,,,,,,,,,,,30.39852559999963,£50,D.bmp,£0,O.bmp,30.398790199998984,30.398803000000044,match,24,£50,D.bmp,30.3990560000002,30.39906879999944,30.413494000000355,30.897615699999733,30.897627399999692,30.91441870000017,30.91441870000017,30.91441870000017,30.981284600000436,n,0.05737260000023525,None,30.981872700000167,0,30.98212500000045,30.91441870000017,,,,,,,,328449,001,2023-11-21_15h48.00.018,ala,2023.2.3,59.95685504685459,2023-11-21 15h48.05.298325 +0000,
0,0,0,0,25,0,25,0,30.997351799998796,,,,,,,,,,,,,,,30.982539999999062,£50,D.bmp,£0,D.bmp,30.98280429999977,30.982817299998715,match,25,£50,D.bmp,30.983068800000183,30.983081599999423,30.997351799998796,31.48139210000045,31.481404199999815,31.49815429999944,31.49815429999944,31.49815429999944,31.5985555999996,n,0.09793940000054135,None,31.59916069999963,0,31.599420200000168,31.49815429999944,,,,,,,,328449,001,2023-11-21_15h48.00.018,ala,2023.2.3,59.95685504685459,2023-11-21 15h48.05.298325 +0000,
0,0,0,0,26,0,26,0,31.61457679999876,,,,,,,,,,,,,,,31.599848199999542,£50,D.bmp,£0,O.bmp,31.600119200000336,31.600132100000337,mismatch,26,£0,O.bmp,31.600388200000452,31.600401199999396,31.61457679999876,32.09867730000042,32.09868970000025,32.11542249999911,32.11542249999911,32.11542249999911,32.16576899999927,n,0.03980529999898863,None,32.16635359999964,1,32.16660779999984,32.11542249999911,,,,,,,,328449,001,2023-11-21_15h48.00.018,ala,2023.2.3,59.95685504685459,2023-11-21 15h48.05.298325 +0000,
0,0,0,0,27,0,27,0,32.18171880000045,,,,,,,,,,,,,,,32.16702239999904,£50,D.bmp,£50,P.bmp,32.16728979999971,32.1673023000003,mismatch,27,£50,P.bmp,32.16755329999978,32.16756619999978,32.18171880000045,32.66581709999991,32.665828999999576,32.682668999999805,32.682668999999805,32.682668999999805,32.732874499999525,n,0.04055990000051679,None,32.73345479999989,1,32.733705999999074,32.682668999999805,,,,,,,,328449,001,2023-11-21_15h48.00.018,ala,2023.2.3,59.95685504685459,2023-11-21 15h48.05.298325 +0000,
0,0,0,0,28,0,28,0,32.7489201999997,,,,,,,,,,,,,,,32.734122099998785,£50,D.bmp,£0,D.bmp,32.734387000000424,32.734399900000426,match,28,£50,D.bmp,32.734652999999525,32.73466589999953,32.7489201999997,33.23302220000005,33.233034200000475,33.249799899998834,33.249799899998834,33.249799899998834,33.2667634999998,n,0.010221799999271752,None,33.26735000000008,0,33.26760309999918,33.249799899998834,,,,,,,,328449,001,2023-11-21_15h48.00.018,ala,2023.2.3,59.95685504685459,2023-11-21 15h48.05.298325 +0000,
0,0,0,0,29,0,29,0,33.282761200000095,,,,,,,,,,,,,,,33.26801829999931,£50,D.bmp,£50,O.bmp,33.268282799999724,33.26829580000049,mismatch,29,£50,O.bmp,33.268548799998825,33.26856140000018,33.282761200000095,33.76684269999896,33.766854699999385,33.78361670000049,33.78361670000049,33.78361670000049,33.83388240000022,n,0.03645599999981641,None,33.83446509999885,1,33.83472129999973,33.78361670000049,,,,,,,,328449,001,2023-11-21_15h48.00.018,ala,2023.2.3,59.95685504685459,2023-11-21 15h48.05.298325 +0000,
0,0,0,0,30,0,30,0,33.84995439999875,,,,,,,,,,,,,,,33.83513870000024,£50,D.bmp,£50,P.bmp,33.835405300000275,33.83541829999922,match,30,£50,D.bmp,33.835671799999545,33.83568469999955,33.84995439999875,34.333970800000316,34.333983000000444,34.3508712999992,34.3508712999992,34.3508712999992,34.43442789999972,m,0.06866400000035355,None,34.43502780000017,1,34.43528849999893,34.3508712999992,,,,,,,,328449,001,2023-11-21_15h48.00.018,ala,2023.2.3,59.95685504685459,2023-11-21 15h48.05.298325 +0000,
0,0,0,0,31,0,31,0,34.45048859999952,,,,,,,,,,,,,,,34.435716899999534,£50,D.bmp,£100,P.bmp,34.435984100000496,34.435997399999906,mismatch,31,£100,P.bmp,34.436261799999556,34.43627469999956,34.45048859999952,34.934663199999704,34.9346757000003,34.951415199999246,34.951415199999246,34.951415199999246,34.98496720000003,m,0.02822120000018913,None,34.98554979999972,0,34.98579989999962,34.951415199999246,,,,,,,,328449,001,2023-11-21_15h48.00.018,ala,2023.2.3,59.95685504685459,2023-11-21 15h48.05.298325 +0000,
0,0,0,0,32,0,32,0,35.001005899999655,,,,,,,,,,,,,,,34.98621590000039,£50,D.bmp,£50,O.bmp,34.98647979999987,34.986492799998814,match,32,£50,D.bmp,34.98672830000032,34.98674109999956,35.001005899999655,35.4852049000001,35.4852164999993,35.50194129999909,35.50194129999909,35.50194129999909,35.73575729999902,n,0.22940140000173415,None,35.73635909999939,0,35.736615099998744,35.50194129999909,,,,,,,,328449,001,2023-11-21_15h48.00.018,ala,2023.2.3,59.95685504685459,2023-11-21 15h48.05.298325 +0000,
0,0,0,0,33,0,33,0,35.75156969999989,,,,,,,,,,,,,,,35.737045099998795,£50,D.bmp,£100,P.bmp,35.73732159999963,35.73733429999993,mismatch,33,£100,P.bmp,35.73758749999979,35.73760029999903,35.75156969999989,36.235832700000174,36.235844999999244,36.25258059999942,36.25258059999942,36.25258059999942,36.28621419999945,m,0.02343250000012631,None,36.28679059999922,0,36.28704649999963,36.25258059999942,,,,,,,,328449,001,2023-11-21_15h48.00.018,ala,2023.2.3,59.95685504685459,2023-11-21 15h48.05.298325 +0000,
0,0,0,0,34,0,34,0,36.302095299999564,,,,,,,,,,,,,,,36.28746130000036,£50,D.bmp,£100,O.bmp,36.287727099999756,36.28773999999976,mismatch,34,£100,O.bmp,36.28799649999928,36.28800930000034,36.302095299999564,36.786319200000435,36.786330999999336,36.803067400000145,36.803067400000145,36.803067400000145,37.12017399999968,m,0.3123432000011235,None,37.1207615000003,0,37.12101149999944,36.803067400000145,,,,,,,,328449,001,2023-11-21_15h48.00.018,ala,2023.2.3,59.95685504685459,2023-11-21 15h48.05.298325 +0000,
0,0,0,0,35,0,35,0,37.13629889999902,,,,,,,,,,,,,,,37.12143130000004,£50,D.bmp,£0,O.bmp,37.121695899999395,37.121708799999396,mismatch,35,£0,O.bmp,37.12196179999955,37.121974699999555,37.13629889999902,37.62040329999945,37.6204144000003,37.63723989999926,37.63723989999926,37.63723989999926,37.80429579999873,n,0.16611069999999017,None,37.80489829999897,1,37.80515500000001,37.63723989999926,,,,,,,,328449,001,2023-11-21_15h48.00.018,ala,2023.2.3,59.95685504685459,2023-11-21 15h48.05.298325 +0000,
0,0,0,0,36,0,36,0,37.82030719999966,,,,,,,,,,,,,,,37.8055848999993,£50,D.bmp,£100,P.bmp,37.80585319999955,37.80586640000001,mismatch,36,£100,P.bmp,37.80612219999966,37.806135200000426,37.82030719999966,38.30429689999983,38.30430840000008,38.32117069999913,38.32117069999913,38.32117069999913,38.4548223999991,m,0.12251180000021122,None,38.4554033000004,0,38.45565119999992,38.32117069999913,,,,,,,,328449,001,2023-11-21_15h48.00.018,ala,2023.2.3,59.95685504685459,2023-11-21 15h48.05.298325 +0000,
0,0,0,0,37,0,37,0,38.47072339999977,,,,,,,,,,,,,,,38.45606919999955,£50,D.bmp,£0,O.bmp,38.456331899998986,38.45634489999975,match,37,£50,D.bmp,38.45660080000016,38.45661350000046,38.47072339999977,38.95496579999963,38.95497769999929,38.97178890000032,38.97178890000032,38.97178890000032,39.20554179999999,n,0.23227150000093388,None,39.20612859999892,0,39.206377200000134,38.97178890000032,,,,,,,,328449,001,2023-11-21_15h48.00.018,ala,2023.2.3,59.95685504685459,2023-11-21 15h48.05.298325 +0000,
0,0,0,0,38,0,38,0,39.22154500000033,,,,,,,,,,,,,,,39.2067962000001,£50,D.bmp,£100,O.bmp,39.20705950000047,39.20707229999971,mismatch,38,£100,O.bmp,39.207325199999104,39.20733819999987,39.22154500000033,39.70572879999963,39.70573990000048,39.72250359999998,39.72250359999998,39.72250359999998,39.98965309999949,n,0.2647084000000177,None,39.990241600000445,1,39.99049430000014,39.72250359999998,,,,,,,,328449,001,2023-11-21_15h48.00.018,ala,2023.2.3,59.95685504685459,2023-11-21 15h48.05.298325 +0000,
0,0,0,0,39,0,39,0,40.00552169999901,,,,,,,,,,,,,,,39.99090939999951,£50,D.bmp,£0,O.bmp,39.99119249999967,39.99120539999967,mismatch,39,£0,O.bmp,39.99146049999945,39.991473199999746,40.00552169999901,40.48966870000004,40.4896805999997,40.506529299998874,40.506529299998874,40.506529299998874,40.57346399999915,m,0.05735699999968347,None,40.574047599999176,0,40.57429950000005,40.506529299998874,,,,,,,,328449,001,2023-11-21_15h48.00.018,ala,2023.2.3,59.95685504685459,2023-11-21 15h48.05.298325 +0000,
0,0,0,0,40,0,40,0,40.58949120000034,,,,,,,,,,,,,,,40.57471439999972,£50,D.bmp,£0,D.bmp,40.57498349999878,40.57499639999878,mismatch,40,£0,D.bmp,40.575249699999404,40.575262599999405,40.58949120000034,41.0738812999989,41.07389299999886,41.09039879999909,41.09039879999909,41.09039879999909,41.20721599999888,n,0.10507560000041849,None,41.20780439999908,1,41.20805389999987,41.09039879999909,,,,,,,,328449,001,2023-11-21_15h48.00.018,ala,2023.2.3,59.95685504685459,2023-11-21 15h48.05.298325 +0000,
0,0,0,0,41,0,41,0,41.223396199999115,,,,,,,,,,,,,,,41.208472399999664,£50,D.bmp,£100,O.bmp,41.20873550000033,41.20874829999957,match,41,£50,D.bmp,41.209001699999135,41.209014599999136,41.223396199999115,41.707782399998905,41.707801700000346,41.724361299999146,41.724361299999146,41.724361299999146,41.80840419999913,m,0.07124359999943408,None,41.809441100000186,1,41.809875199998714,41.724361299999146,,,,,,,,328449,001,2023-11-21_15h48.00.018,ala,2023.2.3,59.95685504685459,2023-11-21 15h48.05.298325 +0000,
0,0,0,0,42,0,42,0,41.823992100000396,,,,,,,,,,,,,,,41.81063879999965,£50,D.bmp,£100,O.bmp,41.81107390000034,41.81109639999886,match,42,£50,D.bmp,41.81151499999942,41.811541099999886,41.823992100000396,42.30827949999912,42.3082988999995,42.3249238999997,42.3249238999997,42.3249238999997,42.37550569999985,n,0.03833699999995588,None,42.37654669999938,0,42.37696049999977,42.3249238999997,,,,,,,,328449,001,2023-11-21_15h48.00.018,ala,2023.2.3,59.95685504685459,2023-11-21 15h48.05.298325 +0000,
0,0,0,0,43,0,43,0,42.39124409999931,,,,,,,,,,,,,,,42.37772789999872,£50,D.bmp,£0,P.bmp,42.37815760000012,42.37818369999877,mismatch,43,£0,P.bmp,42.378599399999075,42.37862139999925,42.39124409999931,42.87560709999889,42.87562539999999,42.89211929999874,42.89211929999874,42.89211929999874,42.9761268000002,n,0.07176470000013069,None,42.97716709999986,1,42.97758149999936,42.89211929999874,,,,,,,,328449,001,2023-11-21_15h48.00.018,ala,2023.2.3,59.95685504685459,2023-11-21 15h48.05.298325 +0000,
0,0,0,0,44,0,44,0,42.991726299998845,,,,,,,,,,,,,,,42.978340699999535,£50,D.bmp,£0,P.bmp,42.97878169999967,42.978807499999675,match,44,£50,D.bmp,42.979224700000486,42.979246999999305,42.991726299998845,43.47605579999981,43.47607500000049,43.492646599999716,43.492646599999716,43.492646599999716,43.76019189999897,n,0.25479839999934484,None,43.7612337999999,0,43.761671999998725,43.492646599999716,,,,,,,,328449,001,2023-11-21_15h48.00.018,ala,2023.2.3,59.95685504685459,2023-11-21 15h48.05.298325 +0000,
0,0,0,0,45,0,45,0,43.77583059999961,,,,,,,,,,,,,,,43.762432999999874,£50,D.bmp,£100,O.bmp,43.76286579999942,43.762888199999,mismatch,45,£100,O.bmp,43.76330129999951,43.76332699999875,43.77583059999961,44.260097999998834,44.260117300000275,44.27674339999976,44.27674339999976,44.27674339999976,44.360717899999145,m,0.08028580000063812,None,44.361757299999226,0,44.362176499998895,44.27674339999976,,,,,,,,328449,001,2023-11-21_15h48.00.018,ala,2023.2.3,59.95685504685459,2023-11-21 15h48.05.298325 +0000,
0,0,0,0,46,0,46,0,44.37633470000037,,,,,,,,,,,,,,,44.36293099999966,£50,D.bmp,£50,O.bmp,44.36337029999959,44.363392600000225,match,46,£50,D.bmp,44.36380579999968,44.363827400000446,44.37633470000037,44.86066949999986,44.86068879999948,44.87732370000049,44.87732370000049,44.87732370000049,45.37778109999999,m,0.49455200000011246,None,45.3784126999999,1,45.37867489999917,44.87732370000049,,,,,,,,328449,001,2023-11-21_15h48.00.018,ala,2023.2.3,59.95685504685459,2023-11-21 15h48.05.298325 +0000,
0,0,0,0,47,0,47,0,45.393836699999156,,,,,,,,,,,,,,,45.37912899999901,£50,D.bmp,£0,P.bmp,45.379403799999636,45.37941729999875,mismatch,47,£0,P.bmp,45.37968389999878,45.379696899999544,45.393836699999156,45.877926499999376,45.87793839999904,45.894718399998965,45.894718399998965,45.894718399998965,46.478808500000014,m,0.5743760999994265,None,46.479439799999454,0,46.47970249999889,45.894718399998965,,,,,,,,328449,001,2023-11-21_15h48.00.018,ala,2023.2.3,59.95685504685459,2023-11-21 15h48.05.298325 +0000,
0,0,0,0,48,0,48,0,46.49483770000006,,,,,,,,,,,,,,,46.48015850000047,£50,D.bmp,£0,D.bmp,46.48043719999987,46.48045049999928,mismatch,48,£0,D.bmp,46.48071429999982,46.48072759999923,46.49483770000006,46.97884089999934,46.97885329999917,46.99576299999899,46.99576299999899,46.99576299999899,47.07929089999925,n,0.07175959999949555,None,47.0799205000003,1,47.08018549999906,46.99576299999899,,,,,,,,328449,001,2023-11-21_15h48.00.018,ala,2023.2.3,59.95685504685459,2023-11-21 15h48.05.298325 +0000,
0,0,0,0,49,0,49,0,47.09535440000036,,,,,,,,,,,,,,,47.08063360000051,£50,D.bmp,£0,O.bmp,47.080911999999444,47.08092529999885,mismatch,49,£0,O.bmp,47.08119319999969,47.08120620000045,47.09535440000036,47.57950039999923,47.579513299999235,47.59632679999959,47.59632679999959,47.59632679999959,47.763334600000235,m,0.1511900000004971,None,47.7639607000001,0,47.76422400000047,47.59632679999959,,,,,,,,328449,001,2023-11-21_15h48.00.018,ala,2023.2.3,59.95685504685459,2023-11-21 15h48.05.298325 +0000,
0,0,0,0,50,0,50,0,47.7793271999999,,,,,,,,,,,,,,,47.76467149999917,£50,D.bmp,£0,D.bmp,47.764945299999454,47.76495859999886,match,50,£50,D.bmp,47.76522449999902,47.76523769999949,47.7793271999999,48.2636050000001,48.26361700000052,48.28027680000014,48.28027680000014,48.28027680000014,48.36374119999891,n,0.07571500000085507,None,48.36432909999894,0,48.3645822999988,48.28027680000014,,,,,,,,328449,001,2023-11-21_15h48.00.018,ala,2023.2.3,59.95685504685459,2023-11-21 15h48.05.298325 +0000,
0,0,0,0,51,0,51,0,48.37997809999979,,,,,,,,,,,,,,,48.365000699999655,£50,D.bmp,£100,P.bmp,48.36526640000011,48.36527919999935,mismatch,51,£100,P.bmp,48.36553449999883,48.36554719999913,48.37997809999979,48.86407259999942,48.86408399999891,48.88089409999884,48.88089409999884,48.88089409999884,48.93109910000021,m,0.0424659000000247,None,48.93168650000007,0,48.93193690000044,48.88089409999884,,,,,,,,328449,001,2023-11-21_15h48.00.018,ala,2023.2.3,59.95685504685459,2023-11-21 15h48.05.298325 +0000,
0,0,0,0,52,0,52,0,48.94709299999886,,,,,,,,,,,,,,,48.93235719999939,£50,D.bmp,£0,O.bmp,48.93262030000005,48.93263309999929,mismatch,52,£0,O.bmp,48.932884699999704,48.93289729999924,48.94709299999886,49.431167099999584,49.43117919999895,49.44808659999944,49.44808659999944,49.44808659999944,49.98190900000009,m,0.5240733000009641,None,49.98249869999927,0,49.98274759999913,49.44808659999944,,,,,,,,328449,001,2023-11-21_15h48.00.018,ala,2023.2.3,59.95685504685459,2023-11-21 15h48.05.298325 +0000,
0,0,0,0,53,0,53,0,49.998095799999646,,,,,,,,,,,,,,,49.9831680999996,£50,D.bmp,£0,P.bmp,49.98343219999879,49.98344509999879,mismatch,53,£0,P.bmp,49.98369710000043,49.983709799998906,49.998095799999646,50.4821651000002,50.482176499999696,50.498954999999114,50.498954999999114,50.498954999999114,50.782870600000024,n,0.2727780999994138,None,50.78345429999899,1,50.78372759999911,50.498954999999114,,,,,,,,328449,001,2023-11-21_15h48.00.018,ala,2023.2.3,59.95685504685459,2023-11-21 15h48.05.298325 +0000,
0,0,0,0,54,0,54,0,50.7988277000004,,,,,,,,,,,,,,,50.78414449999946,£50,D.bmp,£0,O.bmp,50.7844428999997,50.784455199998774,match,54,£50,D.bmp,50.78474869999991,50.78476049999881,50.7988277000004,51.28289909999876,51.28291089999948,51.29969859999983,51.29969859999983,51.29969859999983,51.40022279999903,m,0.09653179999986605,None,51.40083009999944,1,51.40108049999981,51.29969859999983,,,,,,,,328449,001,2023-11-21_15h48.00.018,ala,2023.2.3,59.95685504685459,2023-11-21 15h48.05.298325 +0000,
0,0,0,0,55,0,55,0,51.41607579999982,,,,,,,,,,,,,,,51.40151530000003,£50,D.bmp,£0,O.bmp,51.40176309999879,51.40177509999921,mismatch,55,£0,O.bmp,51.40200509999886,51.402016599999115,51.41607579999982,51.90025269999933,51.90026389999912,51.91699309999967,51.91699309999967,51.91699309999967,52.11753580000004,m,0.19886829999995825,None,52.11825839999983,0,52.11859569999979,51.91699309999967,,,,,,,,328449,001,2023-11-21_15h48.00.018,ala,2023.2.3,59.95685504685459,2023-11-21 15h48.05.298325 +0000,
0,0,0,0,56,0,56,0,52.13352599999962,,,,,,,,,,,,,,,52.11910390000048,£50,D.bmp,£0,P.bmp,52.11936690000039,52.11937930000022,mismatch,56,£0,P.bmp,52.11963239999932,52.11964529999932,52.13352599999962,52.61750219999885,52.61751369999911,52.634252699999706,52.634252699999706,52.634252699999706,52.70117759999994,m,0.056916999999884865,None,52.70175720000043,0,52.70201029999953,52.634252699999706,,,,,,,,328449,001,2023-11-21_15h48.00.018,ala,2023.2.3,59.95685504685459,2023-11-21 15h48.05.298325 +0000,
0,0,0,0,57,0,57,0,52.71722719999889,,,,,,,,,,,,,,,52.70242859999962,£50,D.bmp,£100,P.bmp,52.70269489999919,52.70270779999919,match,57,£50,D.bmp,52.70296109999981,52.70297380000011,52.71722719999889,53.20136719999937,53.20137859999886,53.21816369999942,53.21816369999942,53.21816369999942,53.30190070000026,m,0.07295549999980722,None,53.30250220000016,1,53.30275739999888,53.21816369999942,,,,,,,,328449,001,2023-11-21_15h48.00.018,ala,2023.2.3,59.95685504685459,2023-11-21 15h48.05.298325 +0000,
0,0,0,0,58,0,58,0,53.317810499998814,,,,,,,,,,,,,,,53.303185900000244,£50,D.bmp,£100,D.bmp,53.30345379999926,53.30346669999926,mismatch,58,£100,D.bmp,53.3037217000001,53.30373449999934,53.317810499998814,53.8018878999992,53.801899799998864,53.81868349999968,53.81868349999968,53.81868349999968,53.985783099999026,m,0.16093530000034661,None,53.98636400000032,0,53.98661530000027,53.81868349999968,,,,,,,,328449,001,2023-11-21_15h48.00.018,ala,2023.2.3,59.95685504685459,2023-11-21 15h48.05.298325 +0000,
0,0,0,0,59,0,59,0,54.00177629999962,,,,,,,,,,,,,,,53.98703000000023,£50,D.bmp,£50,P.bmp,53.98729119999916,53.98730400000022,mismatch,59,£50,P.bmp,53.987559999999576,53.98757250000017,54.00177629999962,54.48582989999886,54.48584089999895,54.502632199999425,54.502632199999425,54.502632199999425,54.63635509999949,m,0.11708889999863459,None,54.63693439999952,0,54.637183599999844,54.502632199999425,,,,,,,,328449,001,2023-11-21_15h48.00.018,ala,2023.2.3,59.95685504685459,2023-11-21 15h48.05.298325 +0000,
1,0,1,0,0,0,0,0,57.15478919999987,,,,,,,,,,,,,,,57.14066400000047,£50,D.bmp,£100,D.bmp,57.14113009999892,57.14114349999909,mismatch,0,£100,D.bmp,57.14145329999883,57.14146619999883,57.15478919999987,57.638747499999226,57.63875889999872,57.655523399998856,57.655523399998856,57.655523399998856,57.82261560000006,n,0.16347980000136886,None,57.82338759999948,1,57.82363760000044,57.655523399998856,54.63724480000019,54.65232809999907,54.65232809999907,57.138447199999064,space,2.4712698999992426,None,328449,001,2023-11-21_15h48.00.018,ala,2023.2.3,59.95685504685459,2023-11-21 15h48.05.298325 +0000,
1,0,1,0,1,0,1,0,57.83859180000036,,,,,,,,,,,,,,,57.824057099998754,£50,D.bmp,£100,P.bmp,57.824319899998954,57.824332700000014,mismatch,1,£100,P.bmp,57.82458509999924,57.8245979000003,57.83859180000036,58.32254959999955,58.32256219999908,58.339455199999065,58.339455199999065,58.339455199999065,58.42309539999951,m,0.0798320000012609,None,58.423678299999665,0,58.42392889999974,58.339455199999065,,,,,,,,328449,001,2023-11-21_15h48.00.018,ala,2023.2.3,59.95685504685459,2023-11-21 15h48.05.298325 +0000,
1,0,1,0,2,0,2,0,58.43916139999965,,,,,,,,,,,,,,,58.42435010000008,£50,D.bmp,£100,P.bmp,58.424618199998804,58.42463099999986,mismatch,2,£100,P.bmp,58.424884799998836,58.42489740000019,58.43916139999965,58.923255300000164,58.92326750000029,58.94004219999988,58.94004219999988,58.94004219999988,59.12378700000045,m,0.16753979999884905,None,59.124365699999544,0,59.124614099999235,58.94004219999988,,,,,,,,328449,001,2023-11-21_15h48.00.018,ala,2023.2.3,59.95685504685459,2023-11-21 15h48.05.298325 +0000,
1,0,1,0,3,0,3,0,59.139791499999774,,,,,,,,,,,,,,,59.12502829999903,£50,D.bmp,£100,O.bmp,59.125315299999784,59.12532789999932,match,3,£50,D.bmp,59.12558199999876,59.12559449999935,59.139791499999774,59.62377149999884,59.62378329999956,59.64066839999941,59.64066839999941,59.64066839999941,59.79106049999973,m,0.14718400000128895,None,59.791664799999126,1,59.7919167,59.64066839999941,,,,,,,,328449,001,2023-11-21_15h48.00.018,ala,2023.2.3,59.95685504685459,2023-11-21 15h48.05.298325 +0000,
1,0,1,0,4,0,4,0,59.80695879999985,,,,,,,,,,,,,,,59.79233360000035,£50,D.bmp,£50,O.bmp,59.792598899999575,59.79261199999928,match,4,£50,D.bmp,59.79286729999876,59.79287999999906,59.80695879999985,60.29118279999966,60.29119489999903,60.3078387000005,60.3078387000005,60.3078387000005,60.32492169999932,m,0.007411399999909918,None,60.32550579999952,1,60.32575890000044,60.3078387000005,,,,,,,,328449,001,2023-11-21_15h48.00.018,ala,2023.2.3,59.95685504685459,2023-11-21 15h48.05.298325 +0000,
1,0,1,0,5,0,5,0,60.340880599998854,,,,,,,,,,,,,,,60.32617699999901,£50,D.bmp,£100,D.bmp,60.326441799999884,60.32645479999883,mismatch,5,£100,D.bmp,60.326707799998985,60.326720600000044,60.340880599998854,60.82501219999904,60.825023800000054,60.841739899999084,60.841739899999084,60.841739899999084,60.858657499999026,m,0.001999699999942095,None,60.8592424999988,0,60.85949789999904,60.841739899999084,,,,,,,,328449,001,2023-11-21_15h48.00.018,ala,2023.2.3,59.95685504685459,2023-11-21 15h48.05.298325 +0000,
1,0,1,0,6,0,6,0,60.874718199998824,,,,,,,,,,,,,,,60.85991280000053,£50,D.bmp,£100,O.bmp,60.86017890000039,60.8601920000001,mismatch,6,£100,O.bmp,60.860447099999874,60.86046009999882,60.874718199998824,61.35875099999976,61.35876280000048,61.375508199998876,61.375508199998876,61.375508199998876,61.409245400000145,m,0.020102100001167855,None,61.4098285,0,61.410078999999314,61.375508199998876,,,,,,,,328449,001,2023-11-21_15h48.00.018,ala,2023.2.3,59.95685504685459,2023-11-21 15h48.05.298325 +0000,
1,0,1,0,7,0,7,0,61.42505720000008,,,,,,,,,,,,,,,61.41049209999983,£50,D.bmp,£100,P.bmp,61.41076350000003,61.41077640000003,mismatch,7,£100,P.bmp,61.411028200000146,61.411040999999386,61.42505720000008,61.909326499999224,61.90933839999889,61.92612349999945,61.92612349999945,61.92612349999945,61.95967769999879,m,0.029553300000770832,None,61.96027349999895,0,61.96053120000033,61.92612349999945,,,,,,,,328449,001,2023-11-21_15h48.00.018,ala,2023.2.3,59.95685504685459,2023-11-21 15h48.05.298325 +0000,
1,0,1,0,8,0,8,0,61.9757443999988,,,,,,,,,,,,,,,61.96096000000034,£50,D.bmp,£50,P.bmp,61.961228799998935,61.96124190000046,mismatch,8,£50,P.bmp,61.961498599999686,61.96151149999969,61.9757443999988,62.4597775000002,62.45978920000016,62.47666729999946,62.47666729999946,62.47666729999946,62.54363079999894,m,0.054759200000262354,None,62.54421159999947,0,62.54448070000035,62.47666729999946,,,,,,,,328449,001,2023-11-21_15h48.00.018,ala,2023.2.3,59.95685504685459,2023-11-21 15h48.05.298325 +0000,
1,0,1,0,9,0,9,0,62.559586899998976,,,,,,,,,,,,,,,62.544897599998876,£50,D.bmp,£50,P.bmp,62.5451979999998,62.54521039999963,match,9,£50,D.bmp,62.54548479999903,62.545497400000386,62.559586899998976,63.04359949999889,63.04361160000008,63.06044549999933,63.06044549999933,63.06044549999933,63.09409509999932,m,0.031140600000071572,None,63.09469439999884,1,63.09495070000048,63.06044549999933,,,,,,,,328449,001,2023-11-21_15h48.00.018,ala,2023.2.3,59.95685504685459,2023-11-21 15h48.05.298325 +0000,
1,0,1,0,10,0,10,0,63.11011250000047,,,,,,,,,,,,,,,63.09537689999888,£50,D.bmp,£50,P.bmp,63.09564909999972,63.095662199999424,mismatch,10,£50,P.bmp,63.095919699999286,63.09593259999929,63.11011250000047,63.59424989999934,63.5942615999993,63.610917199999676,63.610917199999676,63.610917199999676,63.69461079999928,m,0.07295849999900383,None,63.69519729999956,0,63.69545389999985,63.610917199999676,,,,,,,,328449,001,2023-11-21_15h48.00.018,ala,2023.2.3,59.95685504685459,2023-11-21 15h48.05.298325 +0000,
1,0,1,0,11,0,11,0,63.71064999999908,,,,,,,,,,,,,,,63.695874600000025,£50,D.bmp,£50,O.bmp,63.696143199998914,63.69615589999921,match,11,£50,D.bmp,63.696411400000216,63.69642410000051,63.71064999999908,64.19499309999992,64.19500549999975,64.21149700000024,64.21149700000024,64.21149700000024,64.29527769999913,m,0.08034430000043358,None,64.29588209999929,1,64.29613699999936,64.21149700000024,,,,,,,,328449,001,2023-11-21_15h48.00.018,ala,2023.2.3,59.95685504685459,2023-11-21 15h48.05.298325 +0000,
1,0,1,0,12,0,12,0,64.31116789999942,,,,,,,,,,,,,,,64.2965568999989,£50,D.bmp,£50,P.bmp,64.29682639999919,64.29683920000025,match,12,£50,D.bmp,64.29709579999871,64.29710840000007,64.31116789999942,64.79534479999893,64.79535719999876,64.8119902999988,64.8119902999988,64.8119902999988,64.87902659999963,m,0.05507440000110364,None,64.87961469999937,1,64.87986490000003,64.8119902999988,,,,,,,,328449,001,2023-11-21_15h48.00.018,ala,2023.2.3,59.95685504685459,2023-11-21 15h48.05.298325 +0000,
1,0,1,0,13,0,13,0,64.89508989999922,,,,,,,,,,,,,,,64.88028049999957,£50,D.bmp,£0,O.bmp,64.88054939999893,64.88056219999999,mismatch,13,£0,O.bmp,64.88081729999976,64.88083000000006,64.89508989999922,65.37925229999928,65.3792639000003,65.39592540000012,65.39592540000012,65.39592540000012,65.47967020000033,m,0.07948539999961213,None,65.48025029999917,0,65.48050499999954,65.39592540000012,,,,,,,,328449,001,2023-11-21_15h48.00.018,ala,2023.2.3,59.95685504685459,2023-11-21 15h48.05.298325 +0000,
1,0,1,0,14,0,14,0,65.49557400000049,,,,,,,,,,,,,,,65.48091810000005,£50,D.bmp,£100,D.bmp,65.48118409999915,65.48119699999916,mismatch,14,£100,D.bmp,65.4814523999994,65.48146489999999,65.49557400000049,65.97970499999974,65.97971609999877,65.99649750000026,65.99649750000026,65.99649750000026,66.06360300000051,m,0.0627580999989732,None,66.06421149999915,0,66.06447759999901,65.99649750000026,,,,,,,,328449,001,2023-11-21_15h48.00.018,ala,2023.2.3,59.95685504685459,2023-11-21 15h48.05.298325 +0000,
1,0,1,0,15,0,15,0,66.07939590000024,,,,,,,,,,,,,,,66.06490619999931,£50,D.bmp,£100,P.bmp,66.06517319999875,66.06518800000049,mismatch,15,£100,P.bmp,66.06544749999921,66.0654601999995,66.07939590000024,66.56354850000025,66.56355970000004,66.58034729999963,66.58034729999963,66.58034729999963,66.68056979999892,m,0.09548150000046007,None,66.68115299999954,0,66.68140610000046,66.58034729999963,,,,,,,,328449,001,2023-11-21_15h48.00.018,ala,2023.2.3,59.95685504685459,2023-11-21 15h48.05.298325 +0000,
1,0,1,0,16,0,16,0,66.69673379999949,,,,,,,,,,,,,,,66.68182499999966,£50,D.bmp,£0,P.bmp,66.68208869999944,66.6821017000002,mismatch,16,£0,P.bmp,66.68235529999947,66.68236810000053,66.69673379999949,67.18080089999967,67.18081229999916,67.19767899999897,67.19767899999897,67.19767899999897,67.2979192999992,m,0.09433220000028086,None,67.29850559999977,0,67.29875759999959,67.19767899999897,,,,,,,,328449,001,2023-11-21_15h48.00.018,ala,2023.2.3,59.95685504685459,2023-11-21 15h48.05.298325 +0000,
1,0,1,0,17,0,17,0,67.3139744,,,,,,,,,,,,,,,67.29917629999909,£50,D.bmp,£100,P.bmp,67.29944299999988,67.29945589999988,match,17,£50,D.bmp,67.29970759999924,67.29972029999954,67.3139744,67.79802530000052,67.79803700000048,67.81488369999897,67.81488369999897,67.81488369999897,67.94851779999954,m,0.12409970000044268,None,67.94909899999948,1,67.94934839999951,67.81488369999897,,,,,,,,328449,001,2023-11-21_15h48.00.018,ala,2023.2.3,59.95685504685459,2023-11-21 15h48.05.298325 +0000,
1,0,1,0,18,0,18,0,67.9645660999995,,,,,,,,,,,,,,,67.94976419999875,£50,D.bmp,£100,O.bmp,67.9500709999993,67.9500838999993,mismatch,18,£100,O.bmp,67.95033709999916,67.95034979999946,67.9645660999995,68.4487253999996,68.44873670000015,68.4655643999995,68.4655643999995,68.4655643999995,68.5490890000001,m,0.07400309999866295,None,68.54966979999881,0,68.54991979999977,68.4655643999995,,,,,,,,328449,001,2023-11-21_15h48.00.018,ala,2023.2.3,59.95685504685459,2023-11-21 15h48.05.298325 +0000,
1,0,1,0,19,0,19,0,68.56504769999992,,,,,,,,,,,,,,,68.55033699999876,£50,D.bmp,£0,O.bmp,68.55059900000015,68.55061380000006,mismatch,19,£0,O.bmp,68.55087160000039,68.55088439999963,68.56504769999992,69.04922950000037,69.0492405999994,69.06594860000041,69.06594860000041,69.06594860000041,69.1663639999988,m,0.0898062000014761,None,69.16695239999899,0,69.1672036,69.06594860000041,,,,,,,,328449,001,2023-11-21_15h48.00.018,ala,2023.2.3,59.95685504685459,2023-11-21 15h48.05.298325 +0000,
1,0,1,0,20,0,20,0,69.18219539999882,,,,,,,,,,,,,,,69.16762139999992,£50,D.bmp,£100,P.bmp,69.16789189999872,69.16790469999978,mismatch,20,£100,P.bmp,69.1681580000004,69.16817069999888,69.18219539999882,69.66639190000024,69.66640369999914,69.68326949999937,69.68326949999937,69.68326949999937,69.75017429999934,m,0.05635129999973287,None,69.75076389999958,0,69.7510143999989,69.68326949999937,,,,,,,,328449,001,2023-11-21_15h48.00.018,ala,2023.2.3,59.95685504685459,2023-11-21 15h48.05.298325 +0000,
1,0,1,0,21,0,21,0,69.7660225999989,,,,,,,,,,,,,,,69.75143269999899,£50,D.bmp,£100,O.bmp,69.7517241000005,69.75173619999987,mismatch,21,£100,O.bmp,69.75201449999986,69.7520272999991,69.7660225999989,70.25091780000002,70.25093849999939,70.26726930000041,70.26726930000041,70.26726930000041,70.3680117999993,m,0.0883269999994809,None,70.36915880000015,0,70.36961940000037,70.26726930000041,,,,,,,,328449,001,2023-11-21_15h48.00.018,ala,2023.2.3,59.95685504685459,2023-11-21 15h48.05.298325 +0000,
1,0,1,0,22,0,22,0,70.38357460000043,,,,,,,,,,,,,,,70.37045729999954,£50,D.bmp,£0,P.bmp,70.37093319999985,70.37095799999952,match,22,£50,D.bmp,70.37141580000025,70.37143990000004,70.38357460000043,70.86746080000012,70.86747329999889,70.88427620000039,70.88427620000039,70.88427620000039,70.95126150000033,m,0.0552389000004041,None,70.95192130000032,1,70.95219739999993,70.88427620000039,,,,,,,,328449,001,2023-11-21_15h48.00.018,ala,2023.2.3,59.95685504685459,2023-11-21 15h48.05.298325 +0000,
1,0,1,0,23,0,23,0,70.96729469999991,,,,,,,,,,,,,,,70.95267260000037,£50,D.bmp,£0,O.bmp,70.95296210000015,70.95297609999943,mismatch,23,£0,O.bmp,70.95325489999959,70.95326860000023,70.96729469999991,71.45150209999883,71.45151489999989,71.46816519999993,71.46816519999993,71.46816519999993,71.55182889999924,m,0.07953090000046359,None,71.55248969999957,0,71.55277799999931,71.46816519999993,,,,,,,,328449,001,2023-11-21_15h48.00.018,ala,2023.2.3,59.95685504685459,2023-11-21 15h48.05.298325 +0000,
1,0,1,0,24,0,24,0,71.56773959999919,,,,,,,,,,,,,,,71.55325420000008,£50,D.bmp,£100,D.bmp,71.55354689999876,71.55356099999881,match,24,£50,D.bmp,71.55383689999871,71.55385059999935,71.56773959999919,72.05203710000023,72.05204959999901,72.06878399999914,72.06878399999914,72.06878399999914,72.16901719999987,m,0.08633419999932812,None,72.16967519999889,1,72.16994960000011,72.06878399999914,,,,,,,,328449,001,2023-11-21_15h48.00.018,ala,2023.2.3,59.95685504685459,2023-11-21 15h48.05.298325 +0000,
1,0,1,0,25,0,25,0,72.18503310000051,,,,,,,,,,,,,,,72.17042159999983,£50,D.bmp,£50,P.bmp,72.17071289999876,72.1707267999991,match,25,£50,D.bmp,72.17100240000036,72.17101609999918,72.18503310000051,72.66915489999883,72.66916769999989,72.68590679999943,72.68590679999943,72.68590679999943,72.76963140000043,m,0.07710749999932887,None,72.77029709999988,1,72.77057369999966,72.68590679999943,,,,,,,,328449,001,2023-11-21_15h48.00.018,ala,2023.2.3,59.95685504685459,2023-11-21 15h48.05.298325 +0000,
1,0,1,0,26,0,26,0,72.78550829999949,,,,,,,,,,,,,,,72.77105039999878,£50,D.bmp,£0,P.bmp,72.77133820000017,72.77135239999916,mismatch,26,£0,P.bmp,72.77163069999915,72.77164449999873,72.78550829999949,73.26966019999963,73.26967299999887,73.28657649999877,73.28657649999877,73.28657649999877,73.40362800000003,m,0.10886990000108199,None,73.40428799999972,0,73.40457590000005,73.28657649999877,,,,,,,,328449,001,2023-11-21_15h48.00.018,ala,2023.2.3,59.95685504685459,2023-11-21 15h48.05.298325 +0000,
1,0,1,0,27,0,27,0,73.41950019999967,,,,,,,,,,,,,,,73.40504569999939,£50,D.bmp,£0,O.bmp,73.40533340000002,73.40534730000036,mismatch,27,£0,O.bmp,73.40560819999882,73.40562189999946,73.41950019999967,73.90354920000027,73.90356199999951,73.92032870000003,73.92032870000003,73.92032870000003,74.05417769999985,m,0.13130239999918558,None,74.05484160000015,0,74.0551188999998,73.92032870000003,,,,,,,,328449,001,2023-11-21_15h48.00.018,ala,2023.2.3,59.95685504685459,2023-11-21 15h48.05.298325 +0000,
1,0,1,0,28,0,28,0,74.07003259999874,,,,,,,,,,,,,,,74.05559709999943,£50,D.bmp,£50,O.bmp,74.05588829999942,74.05590230000053,match,28,£50,D.bmp,74.05617919999895,74.05619289999959,74.07003259999874,74.55426669999906,74.55427979999877,74.57100439999886,74.57100439999886,74.57100439999886,74.70474749999994,m,0.1203918999999587,None,74.70541389999926,1,74.70568920000005,74.57100439999886,,,,,,,,328449,001,2023-11-21_15h48.00.018,ala,2023.2.3,59.95685504685459,2023-11-21 15h48.05.298325 +0000,
1,0,1,0,29,0,29,0,74.7206628999993,,,,,,,,,,,,,,,74.70616820000032,£50,D.bmp,£100,O.bmp,74.70646420000048,74.706478099999,mismatch,29,£100,O.bmp,74.70675519999895,74.70676900000035,74.7206628999993,75.20494589999907,75.20495859999937,75.22166160000052,75.22166160000052,75.22166160000052,75.33866269999999,m,0.10116700000071432,None,75.33924800000023,0,75.3394976999989,75.22166160000052,,,,,,,,328449,001,2023-11-21_15h48.00.018,ala,2023.2.3,59.95685504685459,2023-11-21 15h48.05.298325 +0000,
1,0,1,0,30,0,30,0,75.35464969999884,,,,,,,,,,,,,,,75.33991380000043,£50,D.bmp,£100,D.bmp,75.34017829999902,75.34019119999903,match,30,£50,D.bmp,75.34044480000011,75.34045739999965,75.35464969999884,75.83877360000042,75.83878519999962,75.8555895999998,75.8555895999998,75.8555895999998,75.97253209999872,m,0.09983529999954044,None,75.97310889999972,1,75.97335759999987,75.8555895999998,,,,,,,,328449,001,2023-11-21_15h48.00.018,ala,2023.2.3,59.95685504685459,2023-11-21 15h48.05.298325 +0000,
1,0,1,0,31,0,31,0,75.98852959999931,,,,,,,,,,,,,,,75.9737710999998,£50,D.bmp,£0,P.bmp,75.97404009999991,75.97405249999974,mismatch,31,£0,P.bmp,75.97430329999952,75.97431589999906,75.98852959999931,76.47264089999953,76.4726527999992,76.48948430000019,76.48948430000019,76.48948430000019,76.5895743000001,m,0.08941439999944123,None,76.59020149999924,0,76.5904503999991,76.48948430000019,,,,,,,,328449,001,2023-11-21_15h48.00.018,ala,2023.2.3,59.95685504685459,2023-11-21 15h48.05.298325 +0000,
1,0,1,0,32,0,32,0,76.6057796999994,,,,,,,,,,,,,,,76.5908662999991,£50,D.bmp,£100,O.bmp,76.59113029999935,76.59114319999935,match,32,£50,D.bmp,76.59139669999968,76.59140949999892,76.6057796999994,77.08987589999924,77.08988709999903,77.10673180000049,77.10673180000049,77.10673180000049,77.19030659999953,m,0.08190140000078827,None,77.19089080000049,1,77.19113619999916,77.10673180000049,,,,,,,,328449,001,2023-11-21_15h48.00.018,ala,2023.2.3,59.95685504685459,2023-11-21 15h48.05.298325 +0000,
1,0,1,0,33,0,33,0,77.20638119999967,,,,,,,,,,,,,,,77.19155729999875,£50,D.bmp,£100,D.bmp,77.1918227999995,77.1918354999998,mismatch,33,£100,D.bmp,77.19208669999898,77.19209950000004,77.20638119999967,77.69046569999955,77.69047709999904,77.70727269999952,77.70727269999952,77.70727269999952,77.82412429999931,m,0.11191490000055637,None,77.82470879999892,0,77.82495840000047,77.70727269999952,,,,,,,,328449,001,2023-11-21_15h48.00.018,ala,2023.2.3,59.95685504685459,2023-11-21 15h48.05.298325 +0000,
1,0,1,0,34,0,34,0,77.84025859999929,,,,,,,,,,,,,,,77.82537749999938,£50,D.bmp,£100,P.bmp,77.82564129999992,77.82565409999916,mismatch,34,£100,P.bmp,77.82590729999902,77.82591999999931,77.84025859999929,78.32458319999932,78.32459469999958,78.34117669999978,78.34117669999978,78.34117669999978,78.40792789999978,m,0.06200210000133666,None,78.4085157999998,0,78.40876679999928,78.34117669999978,,,,,,,,328449,001,2023-11-21_15h48.00.018,ala,2023.2.3,59.95685504685459,2023-11-21 15h48.05.298325 +0000,
1,0,1,0,35,0,35,0,78.42413589999887,,,,,,,,,,,,,,,78.409187199999,£50,D.bmp,£0,O.bmp,78.40944979999949,78.4094626999995,mismatch,35,£0,O.bmp,78.4097254999997,78.40973759999906,78.42413589999887,78.90818209999998,78.90819389999888,78.92512779999925,78.92512779999925,78.92512779999925,78.97531309999977,m,0.04613309999876947,None,78.97589119999975,0,78.97614539999995,78.92512779999925,,,,,,,,328449,001,2023-11-21_15h48.00.018,ala,2023.2.3,59.95685504685459,2023-11-21 15h48.05.298325 +0000,
1,0,1,0,36,0,36,0,78.99127020000014,,,,,,,,,,,,,,,78.97655949999898,£50,D.bmp,£100,O.bmp,78.97682499999974,78.97683789999974,mismatch,36,£100,O.bmp,78.9770908999999,78.97710369999913,78.99127020000014,79.47524479999993,79.47525630000018,79.49225250000018,79.49225250000018,79.49225250000018,82.37842309999905,n,2.878965899999457,None,82.37900669999908,1,82.3792584999992,79.49225250000018,,,,,,,,328449,001,2023-11-21_15h48.00.018,ala,2023.2.3,59.95685504685459,2023-11-21 15h48.05.298325 +0000,
1,0,1,0,37,0,37,0,82.39430700000048,,,,,,,,,,,,,,,82.37967539999954,£50,D.bmp,£0,D.bmp,82.37993780000033,82.37995049999881,match,37,£50,D.bmp,82.38020440000037,82.3802169999999,82.39430700000048,82.87845969999944,82.8784717999988,82.89531379999971,82.89531379999971,82.89531379999971,82.9622975000002,n,0.06037339999966207,None,82.9628843999999,0,82.96313550000013,82.89531379999971,,,,,,,,328449,001,2023-11-21_15h48.00.018,ala,2023.2.3,59.95685504685459,2023-11-21 15h48.05.298325 +0000,
1,0,1,0,38,0,38,0,82.97821970000041,,,,,,,,,,,,,,,82.96355380000023,£50,D.bmp,£50,O.bmp,82.96382189999895,82.9638347,mismatch,38,£50,O.bmp,82.9640875999994,82.9641002999997,82.97821970000041,83.4623503999992,83.46236219999992,83.4791750000004,83.4791750000004,83.4791750000004,83.62957049999932,m,0.14817839999886928,None,83.6301485999993,0,83.63040220000039,83.4791750000004,,,,,,,,328449,001,2023-11-21_15h48.00.018,ala,2023.2.3,59.95685504685459,2023-11-21 15h48.05.298325 +0000,
1,0,1,0,39,0,39,0,83.64553159999923,,,,,,,,,,,,,,,83.63081950000014,£50,D.bmp,£0,P.bmp,83.63109069999882,83.63110349999988,mismatch,39,£0,P.bmp,83.63136049999957,83.63137309999911,83.64553159999923,84.12965090000034,84.12966249999954,84.14647940000032,84.14647940000032,84.14647940000032,84.26348359999974,n,0.10462360000019544,None,84.26406940000015,1,84.2643205000004,84.14647940000032,,,,,,,,328449,001,2023-11-21_15h48.00.018,ala,2023.2.3,59.95685504685459,2023-11-21 15h48.05.298325 +0000,
1,0,1,0,40,0,40,0,84.27948479999941,,,,,,,,,,,,,,,84.26473649999934,£50,D.bmp,£50,P.bmp,84.26500529999976,84.26501800000005,mismatch,40,£50,P.bmp,84.26527129999886,84.26528409999992,84.27948479999941,84.7635792000001,84.763590999999,84.78044629999931,84.78044629999931,84.78044629999931,84.89743640000052,m,0.11039679999885266,None,84.89802409999902,0,84.89827680000053,84.78044629999931,,,,,,,,328449,001,2023-11-21_15h48.00.018,ala,2023.2.3,59.95685504685459,2023-11-21 15h48.05.298325 +0000,
1,0,1,0,41,0,41,0,84.91339859999971,,,,,,,,,,,,,,,84.89869550000003,£50,D.bmp,£0,O.bmp,84.8989359999996,84.8989488999996,match,41,£50,D.bmp,84.89920229999916,84.89921490000052,84.91339859999971,85.39750339999955,85.39751520000027,85.41426630000024,85.41426630000024,85.41426630000024,85.54779969999981,m,0.11675640000066778,None,85.54838469999959,1,85.54863689999911,85.41426630000024,,,,,,,,328449,001,2023-11-21_15h48.00.018,ala,2023.2.3,59.95685504685459,2023-11-21 15h48.05.298325 +0000,
1,0,1,0,42,0,42,0,85.5639859999992,,,,,,,,,,,,,,,85.54905460000009,£50,D.bmp,£100,O.bmp,85.54932399999961,85.54933709999932,match,42,£50,D.bmp,85.54959149999922,85.54960419999952,85.5639859999992,86.04804270000022,86.04805379999925,86.06491099999948,86.06491099999948,86.06491099999948,86.14853640000001,m,0.07418200000029174,None,86.14912319999894,1,86.14937549999922,86.06491099999948,,,,,,,,328449,001,2023-11-21_15h48.00.018,ala,2023.2.3,59.95685504685459,2023-11-21 15h48.05.298325 +0000,
1,0,1,0,43,0,43,0,86.16456370000014,,,,,,,,,,,,,,,86.14979010000025,£50,D.bmp,£50,P.bmp,86.15005539999947,86.15006819999871,mismatch,43,£50,P.bmp,86.15034589999959,86.15035849999913,86.16456370000014,86.6486960000002,86.64870750000046,86.66543400000046,86.66543400000046,86.66543400000046,86.74910739999905,m,0.08210639999924751,None,86.74971539999933,0,86.74996749999991,86.66543400000046,,,,,,,,328449,001,2023-11-21_15h48.00.018,ala,2023.2.3,59.95685504685459,2023-11-21 15h48.05.298325 +0000,
1,0,1,0,44,0,44,0,86.76514329999918,,,,,,,,,,,,,,,86.75039370000013,£50,D.bmp,£100,D.bmp,86.7506555,86.75066849999894,match,44,£50,D.bmp,86.75092359999871,86.75093649999872,86.76514329999918,87.24922609999885,87.24923779999881,87.26593449999928,87.26593449999928,87.26593449999928,87.33305159999873,m,0.05758070000047155,None,87.33365249999952,1,87.33390719999989,87.26593449999928,,,,,,,,328449,001,2023-11-21_15h48.00.018,ala,2023.2.3,59.95685504685459,2023-11-21 15h48.05.298325 +0000,
1,0,1,0,45,0,45,0,87.34883569999874,,,,,,,,,,,,,,,87.33432249999896,£50,D.bmp,£0,O.bmp,87.33460679999916,87.33461960000022,mismatch,45,£0,O.bmp,87.3348747,87.33488729999954,87.34883569999874,87.83309290000034,87.83310439999877,87.84988619999967,87.84988619999967,87.84988619999967,88.00010359999942,m,0.13747870000042894,None,88.00068889999966,0,88.00093670000024,87.84988619999967,,,,,,,,328449,001,2023-11-21_15h48.00.018,ala,2023.2.3,59.95685504685459,2023-11-21 15h48.05.298325 +0000,
1,0,1,0,46,0,46,0,88.0161950999991,,,,,,,,,,,,,,,88.00135909999881,£50,D.bmp,£0,D.bmp,88.0016228000004,88.00163559999964,match,46,£50,D.bmp,88.00188809999963,88.00190060000023,88.0161950999991,88.5003244999989,88.50033609999991,88.51711909999904,88.51711909999904,88.51711909999904,88.66751560000012,m,0.13388529999974708,None,88.66809909999938,1,88.66834609999933,88.51711909999904,,,,,,,,328449,001,2023-11-21_15h48.00.018,ala,2023.2.3,59.95685504685459,2023-11-21 15h48.05.298325 +0000,
1,0,1,0,47,0,47,0,88.68354329999966,,,,,,,,,,,,,,,88.66876000000047,£50,D.bmp,£50,P.bmp,88.66902759999903,88.66904029999932,mismatch,47,£50,P.bmp,88.66929349999918,88.66930619999948,88.68354329999966,89.16760909999903,89.16762050000034,89.18441569999959,89.18441569999959,89.18441569999959,89.3014992999997,n,0.10647750000134693,None,89.30209130000003,1,89.30234380000002,89.18441569999959,,,,,,,,328449,001,2023-11-21_15h48.00.018,ala,2023.2.3,59.95685504685459,2023-11-21 15h48.05.298325 +0000,
1,0,1,0,48,0,48,0,89.31734949999918,,,,,,,,,,,,,,,89.30276109999977,£50,D.bmp,£100,D.bmp,89.30302739999934,89.30304009999963,mismatch,48,£100,D.bmp,89.30329299999903,89.30330569999933,89.31734949999918,89.80171399999927,89.80172539999876,89.81833159999951,89.81833159999951,89.81833159999951,90.00203440000041,m,0.16871349999928498,None,90.00261789999968,0,90.0028702999989,89.81833159999951,,,,,,,,328449,001,2023-11-21_15h48.00.018,ala,2023.2.3,59.95685504685459,2023-11-21 15h48.05.298325 +0000,
1,0,1,0,49,0,49,0,90.01807889999873,,,,,,,,,,,,,,,90.00328809999883,£50,D.bmp,£100,D.bmp,90.00355169999966,90.0035644999989,mismatch,49,£100,D.bmp,90.00381799999923,90.00383080000029,90.01807889999873,90.5022657999998,90.502277399999,90.51898450000044,90.51898450000044,90.51898450000044,90.58603199999925,n,0.05981890000111889,None,90.58660710000004,1,90.58687089999876,90.51898450000044,,,,,,,,328449,001,2023-11-21_15h48.00.018,ala,2023.2.3,59.95685504685459,2023-11-21 15h48.05.298325 +0000,
1,0,1,0,50,0,50,0,90.60183630000029,,,,,,,,,,,,,,,90.58728519999931,£50,D.bmp,£0,P.bmp,90.58755829999973,90.58757049999986,match,50,£50,D.bmp,90.58784879999985,90.58786069999951,90.60183630000029,91.08611649999875,91.08612809999977,91.10293879999881,91.10293879999881,91.10293879999881,91.25342520000049,m,0.14133339999898453,None,91.25403129999904,1,91.25428759999886,91.10293879999881,,,,,,,,328449,001,2023-11-21_15h48.00.018,ala,2023.2.3,59.95685504685459,2023-11-21 15h48.05.298325 +0000,
1,0,1,0,51,0,51,0,91.26923109999916,,,,,,,,,,,,,,,91.25470339999993,£50,D.bmp,£0,D.bmp,91.25497079999877,91.25498349999907,mismatch,51,£0,D.bmp,91.25524020000012,91.25525269999889,91.26923109999916,91.75333820000014,91.75334949999888,91.77015719999872,91.77015719999872,91.77015719999872,91.85366040000008,n,0.08071209999980056,None,91.85424509999939,1,91.85450440000022,91.77015719999872,,,,,,,,328449,001,2023-11-21_15h48.00.018,ala,2023.2.3,59.95685504685459,2023-11-21 15h48.05.298325 +0000,
1,0,1,0,52,0,52,0,91.86977819999993,,,,,,,,,,,,,,,91.85492069999964,£50,D.bmp,£0,D.bmp,91.85519579999891,91.85520779999933,mismatch,52,£0,D.bmp,91.85547359999873,91.85548569999992,91.86977819999993,92.35394649999944,92.3539583999991,92.37067910000042,92.37067910000042,92.37067910000042,92.3876065000004,n,0.0008543999992980389,None,92.38818460000039,1,92.38844849999987,92.37067910000042,,,,,,,,328449,001,2023-11-21_15h48.00.018,ala,2023.2.3,59.95685504685459,2023-11-21 15h48.05.298325 +0000,
1,0,1,0,53,0,53,0,92.403564799999,,,,,,,,,,,,,,,92.38886199999979,£50,D.bmp,£0,O.bmp,92.38913649999995,92.38914859999932,mismatch,53,£0,O.bmp,92.38941039999918,92.3894223999996,92.403564799999,92.88772079999944,92.8877322999997,92.90451579999899,92.90451579999899,92.90451579999899,93.07151789999989,m,0.16231449999941105,None,93.07212059999983,0,93.07236740000008,92.90451579999899,,,,,,,,328449,001,2023-11-21_15h48.00.018,ala,2023.2.3,59.95685504685459,2023-11-21 15h48.05.298325 +0000,
1,0,1,0,54,0,54,0,93.08755550000024,,,,,,,,,,,,,,,93.07278000000042,£50,D.bmp,£0,O.bmp,93.07304359999944,93.07305649999944,match,54,£50,D.bmp,93.0733096999993,93.07332250000036,93.08755550000024,93.57175559999996,93.57176669999899,93.58847179999975,93.58847179999975,93.58847179999975,93.73904179999954,m,0.14229410000007192,None,93.73964679999881,1,93.73990559999947,93.58847179999975,,,,,,,,328449,001,2023-11-21_15h48.00.018,ala,2023.2.3,59.95685504685459,2023-11-21 15h48.05.298325 +0000,
1,0,1,0,55,0,55,0,93.75481899999977,,,,,,,,,,,,,,,93.74033409999902,£50,D.bmp,£100,P.bmp,93.74060189999909,93.74061679999977,mismatch,55,£100,P.bmp,93.74087510000027,93.7408876999998,93.75481899999977,94.23892329999944,94.23893449999923,94.25575759999992,94.25575759999992,94.25575759999992,94.33950899999945,n,0.08309940000071947,None,94.34009479999986,1,94.34035550000044,94.25575759999992,,,,,,,,328449,001,2023-11-21_15h48.00.018,ala,2023.2.3,59.95685504685459,2023-11-21 15h48.05.298325 +0000,
1,0,1,0,56,0,56,0,94.35521320000043,,,,,,,,,,,,,,,94.34077079999952,£50,D.bmp,£100,O.bmp,94.34103510000023,94.34104730000035,mismatch,56,£100,O.bmp,94.34130899999946,94.34132099999988,94.35521320000043,94.83959279999908,94.83960399999887,94.85628650000035,94.85628650000035,94.85628650000035,94.87327819999882,n,0.0025224000000889646,None,94.87386080000033,1,94.87411529999918,94.85628650000035,,,,,,,,328449,001,2023-11-21_15h48.00.018,ala,2023.2.3,59.95685504685459,2023-11-21 15h48.05.298325 +0000,
1,0,1,0,57,0,57,0,94.88911729999927,,,,,,,,,,,,,,,94.87452850000045,£50,D.bmp,£100,P.bmp,94.87479669999993,94.87480929999947,match,57,£50,D.bmp,94.87506380000013,94.87507629999891,94.88911729999927,95.37330089999887,95.37331189999895,95.39009679999981,95.39009679999981,95.39009679999981,95.4570249999997,m,0.053167199999734294,None,95.45761089999905,1,95.45785799999976,95.39009679999981,,,,,,,,328449,001,2023-11-21_15h48.00.018,ala,2023.2.3,59.95685504685459,2023-11-21 15h48.05.298325 +0000,
1,0,1,0,58,0,58,0,95.47308519999933,,,,,,,,,,,,,,,95.45827869999994,£50,D.bmp,£0,D.bmp,95.45854609999878,95.45855889999984,mismatch,58,£0,D.bmp,95.45881069999996,95.45882309999979,95.47308519999933,95.95711589999883,95.95712689999891,95.97392299999956,95.97392299999956,95.97392299999956,96.07429029999912,n,0.08533680000073218,None,96.07487399999991,1,96.07512610000049,95.97392299999956,,,,,,,,328449,001,2023-11-21_15h48.00.018,ala,2023.2.3,59.95685504685459,2023-11-21 15h48.05.298325 +0000,
1,0,1,0,59,0,59,0,96.09026319999975,,,,,,,,,,,,,,,96.07554449999952,£50,D.bmp,£100,D.bmp,96.07580749999943,96.07582019999973,mismatch,59,£100,D.bmp,96.07607199999984,96.07608459999938,96.09026319999975,96.5745169999991,96.57452829999966,96.59120359999906,96.59120359999906,96.59120359999906,96.64148620000014,m,0.035550300000977586,None,96.6420906000003,0,96.64233839999906,96.59120359999906,,,,,,,,328449,001,2023-11-21_15h48.00.018,ala,2023.2.3,59.95685504685459,2023-11-21 15h48.05.298325 +0000,
,,,,,,,,,,,,,,,,,,,,,,,,,,,,,,,,,,,,,,,,,,,,,,,,,,96.64240009999958,96.65743250000014,96.65743250000014,99.0937243999997,space,2.4258608000000095,None,,,,,,,,
