tasks_loop.thisRepN,tasks_loop.thisTrialN,tasks_loop.thisN,tasks_loop.thisIndex,blocks.thisRepN,blocks.thisTrialN,blocks.thisN,blocks.thisIndex,trials.thisRepN,trials.thisTrialN,trials.thisN,trials.thisIndex,thisRow.t,notes,define_tasks.started,define_tasks.stopped,parameters.started,parameters.stopped,select_task_and_match_pairs.started,select_task_and_match_pairs.stopped,show_match_pairs.started,instructions.started,key_resp.started,match1label.started,match2label.started,match3label.started,match1shape.started,match2shape.started,match3shape.started,show_match_pairs.stopped,key_resp.keys,key_resp.rt,key_resp.duration,init_block_count.started,init_block_count.stopped,increment_block_count.started,increment_block_count.stopped,define_trial_list.started,define_trial_list.stopped,decide_what_pair.started,decide_what_pair.stopped,fix.started,fixn.started,fixn.stopped,fix.stopped,show_a_pair.started,text_2.started,put_label.started,put_shape.started,response.started,show_a_pair.stopped,response.keys,response.rt,response.duration,eval.started,eval.stopped,feedback.started,text_4.started,feedback.stopped,write.started,task,block_count,match_1_label,match_1_shape,match_2_label,match_2_shape,match_3_label,match_3_shape,trial_index,trial_type,label,shape,response,rt,acc,write.stopped,text_4.stopped,rest.started,text.started,key_resp_2.started,rest.stopped,key_resp_2.keys,key_resp_2.rt,key_resp_2.duration,the_end.started,text_3.started,the_end.stopped,participant,session,date,expName,psychopyVersion,frameRate,expStart,
0,0,0,0,0,0,0,0,0,0,0,0,1.3312369000004765,,0.015085900000485708,0.015422200000102748,0.015434599999935017,0.015624900000148045,0.016140200000336336,0.016291800000544754,0.016300000000228465,0.06997630000023491,0.06997630000023491,0.06997630000023491,0.06997630000023491,0.06997630000023491,0.06997630000023491,0.06997630000023491,0.06997630000023491,1.3158825000000434,space,1.2380511999999726,None,1.3167389000000185,1.3172660000000178,1.3181586000000607,1.318677100000059,1.3187026000005062,1.319274000000405,1.3202963000003365,1.3209037000005992,1.3209295000006023,1.3312369000004765,1.5471932999998899,1.51577990000078,1.5158182000004672,1.5471932999998899,1.5471932999998899,1.5471932999998899,1.5471932999998899,2.3804242000005615,m,0.8251652999997532,None,2.3813254000006054,2.381742900000063,2.3817673000003197,2.396207499999946,2.6319892999999865,2.6320111000004545,reward,1,£0,D.bmp,£50,O.bmp,£100,P.bmp,0,mismatch,£50,D.bmp,m,0.8251652999997532,0,2.632814600000529,,,,,,,,,,,,457903,001,2023-12-06_22h34.22.861,ala-gemma-3-pairs,2023.2.3,60.42237658143039,2023-12-06 22h34.29.327735 +0000,
0,0,0,0,0,0,0,0,1,0,1,0,2.6459875000000466,,,,,,,,,,,,,,,,,,,,,,,,,,,2.633639700000458,2.634225400000105,2.634266000000025,2.6459875000000466,2.8623044000005393,2.831301400000484,2.8313404999998966,2.8623044000005393,2.8623044000005393,2.8623044000005393,2.8623044000005393,3.113515300000472,n,0.2434283000002324,None,3.1143817000001945,3.114945300000727,3.1149837000002663,3.1287083000006533,3.3647568000005776,3.3648046000007525,reward,1,£0,D.bmp,£50,O.bmp,£100,P.bmp,1,match1,£0,D.bmp,n,0.2434283000002324,0,3.36582559999988,3.37987990000056,,,,,,,,,,,457903,001,2023-12-06_22h34.22.861,ala-gemma-3-pairs,2023.2.3,60.42237658143039,2023-12-06 22h34.29.327735 +0000,
0,0,0,0,0,0,0,0,2,0,2,0,3.37987990000056,,,,,,,,,,,,,,,,,,,,,,,,,,,3.3672661999999036,3.3684197000002314,3.368475000000217,3.37987990000056,3.5945996999998897,3.5640581000006932,3.564100999999937,3.5945996999998897,3.5945996999998897,3.5945996999998897,3.5945996999998897,3.7965586000000258,m,0.18539919999966514,None,3.797580100000232,3.7982348000005004,3.798267800000758,3.8274983000001157,4.062481200000548,4.062511400000403,reward,1,£0,D.bmp,£50,O.bmp,£100,P.bmp,2,match3,£100,P.bmp,m,0.18539919999966514,1,4.063802800000303,,,,,,,,,,,,457903,001,2023-12-06_22h34.22.861,ala-gemma-3-pairs,2023.2.3,60.42237658143039,2023-12-06 22h34.29.327735 +0000,
0,0,0,0,0,0,0,0,3,0,3,0,4.078811200000018,,,,,,,,,,,,,,,,,,,,,,,,,,,4.065084600000773,4.065993900000649,4.066040800000337,4.078811200000018,4.293923600000198,4.263699000000088,4.263747300000432,4.293923600000198,4.293923600000198,4.293923600000198,4.293923600000198,4.361065200000667,n,0.05228389999956562,None,4.361631800000396,4.362003700000059,4.3620205000006536,4.377244799999971,4.612225300000318,4.612259800000174,reward,1,£0,D.bmp,£50,O.bmp,£100,P.bmp,3,match2,£50,O.bmp,n,0.05228389999956562,0,4.613020400000096,4.6273948000007294,,,,,,,,,,,457903,001,2023-12-06_22h34.22.861,ala-gemma-3-pairs,2023.2.3,60.42237658143039,2023-12-06 22h34.29.327735 +0000,
0,0,0,0,0,0,0,0,4,0,4,0,4.6273948000007294,,,,,,,,,,,,,,,,,,,,,,,,,,,4.61406530000022,4.614824100000078,4.61486160000004,4.6273948000007294,4.827600900000107,4.81170210000073,4.811736100000417,4.827600900000107,4.827600900000107,4.827600900000107,4.827600900000107,5.42834220000077,m,0.5948995999997351,None,5.429408800000601,5.430124299999989,5.430159000000458,5.442222000000584,5.677126999999928,5.677156300000206,reward,1,£0,D.bmp,£50,O.bmp,£100,P.bmp,4,mismatch,£50,P.bmp,m,0.5948995999997351,0,5.677824600000349,5.693491200000608,,,,,,,,,,,457903,001,2023-12-06_22h34.22.861,ala-gemma-3-pairs,2023.2.3,60.42237658143039,2023-12-06 22h34.29.327735 +0000,
0,0,0,0,0,0,0,0,5,0,5,0,5.693491200000608,,,,,,,,,,,,,,,,,,,,,,,,,,,5.678680200000599,5.6793078999999125,5.679340000000593,5.693491200000608,5.908783400000175,5.87754010000026,5.877576200000476,5.908783400000175,5.908783400000175,5.908783400000175,5.908783400000175,6.059783000000607,n,0.14340459999948507,None,6.060602999999901,6.061143300000367,6.061168500000349,6.07555290000073,6.310130500000014,6.310162400000081,reward,1,£0,D.bmp,£50,O.bmp,£100,P.bmp,5,mismatch,£100,D.bmp,n,0.14340459999948507,1,6.310889600000337,6.325346399999944,,,,,,,,,,,457903,001,2023-12-06_22h34.22.861,ala-gemma-3-pairs,2023.2.3,60.42237658143039,2023-12-06 22h34.29.327735 +0000,
0,0,0,0,0,0,0,0,6,0,6,0,6.325346399999944,,,,,,,,,,,,,,,,,,,,,,,,,,,6.311840500000471,6.312519000000066,6.312553000000662,6.325346399999944,6.524215400000685,6.509896900000058,6.509928600000421,6.524215400000685,6.524215400000685,6.524215400000685,6.524215400000685,6.79290470000069,m,0.2627119999997376,None,6.793913400000747,6.794553800000358,6.794585200000256,6.807704300000296,7.043496000000232,7.0435448000007455,reward,1,£0,D.bmp,£50,O.bmp,£100,P.bmp,6,mismatch,£50,D.bmp,m,0.2627119999997376,0,7.044650700000602,7.0585651999999754,,,,,,,,,,,457903,001,2023-12-06_22h34.22.861,ala-gemma-3-pairs,2023.2.3,60.42237658143039,2023-12-06 22h34.29.327735 +0000,
0,0,0,0,0,0,0,0,7,0,7,0,7.0585651999999754,,,,,,,,,,,,,,,,,,,,,,,,,,,7.046044100000472,7.04714630000035,7.047199100000398,7.0585651999999754,,7.257146400000238,7.257169700000304,7.274039200000516,7.274039200000516,7.274039200000516,7.274039200000516,7.506981200000155,n,0.2289624000004551,None,7.507549400000244,7.5079396000001,7.507957400000123,7.522587299999941,7.757567000000563,7.75760210000044,reward,1,£0,D.bmp,£50,O.bmp,£100,P.bmp,7,mismatch,£100,O.bmp,n,0.2289624000004551,1,7.758409500000198,7.772869299999911,,,,,,,,,,,457903,001,2023-12-06_22h34.22.861,ala-gemma-3-pairs,2023.2.3,60.42237658143039,2023-12-06 22h34.29.327735 +0000,
0,0,0,0,0,0,0,0,8,0,8,0,7.772869299999911,,,,,,,,,,,,,,,,,,,,,,,,,,,7.759406500000296,7.760262100000546,7.760300200000529,7.772869299999911,7.972464200000104,7.956895900000745,7.956927500000347,7.972464200000104,7.972464200000104,7.972464200000104,7.972464200000104,8.189829500000087,m,0.20436100000006263,None,8.190500100000463,8.190984600000775,8.191006400000333,8.20506000000023,8.438743100000465,8.43875780000053,reward,1,£0,D.bmp,£50,O.bmp,£100,P.bmp,8,mismatch,£100,D.bmp,m,0.20436100000006263,0,8.43906220000008,8.454712100000506,,,,,,,,,,,457903,001,2023-12-06_22h34.22.861,ala-gemma-3-pairs,2023.2.3,60.42237658143039,2023-12-06 22h34.29.327735 +0000,
0,0,0,0,0,0,0,0,9,0,9,0,8.454712100000506,,,,,,,,,,,,,,,,,,,,,,,,,,,8.439464000000044,8.439739000000372,8.439751599999909,8.454712100000506,8.654991600000358,8.639978400000473,8.640019600000414,8.654991600000358,8.654991600000358,8.654991600000358,8.654991600000358,8.940622099999928,n,0.2688856000004307,None,8.94177690000015,8.94249149999996,8.942546400000538,8.954928800000744,9.189059199999974,9.189086700000189,reward,1,£0,D.bmp,£50,O.bmp,£100,P.bmp,9,match2,£50,O.bmp,n,0.2688856000004307,0,9.189708100000644,9.20427170000039,,,,,,,,,,,457903,001,2023-12-06_22h34.22.861,ala-gemma-3-pairs,2023.2.3,60.42237658143039,2023-12-06 22h34.29.327735 +0000,
0,0,0,0,0,0,0,0,10,0,10,0,9.20427170000039,,,,,,,,,,,,,,,,,,,,,,,,,,,9.190473399999973,9.191068300000552,9.191097599999921,9.20427170000039,9.404384800000116,9.388976000000184,9.389006700000209,9.404384800000116,9.404384800000116,9.404384800000116,9.404384800000116,9.489027200000237,m,0.07924410000032367,None,9.489967700000307,9.490563800000018,9.490593600000466,9.50370860000021,9.738777500000651,9.738815600000635,reward,1,£0,D.bmp,£50,O.bmp,£100,P.bmp,10,match1,£0,D.bmp,m,0.07924410000032367,1,9.739618399999927,9.753870300000017,,,,,,,,,,,457903,001,2023-12-06_22h34.22.861,ala-gemma-3-pairs,2023.2.3,60.42237658143039,2023-12-06 22h34.29.327735 +0000,
0,0,0,0,0,0,0,0,11,0,11,0,9.753870300000017,,,,,,,,,,,,,,,,,,,,,,,,,,,9.74077269999998,9.741656500000317,9.741698600000746,9.753870300000017,9.954077200000029,9.938389100000677,9.93842450000011,9.954077200000029,9.954077200000029,9.954077200000029,9.954077200000029,10.070525800000723,n,0.11000530000001163,None,10.071244600000682,10.071692800000164,10.071714700000484,10.086663500000213,10.321211200000107,10.321246000000428,reward,1,£0,D.bmp,£50,O.bmp,£100,P.bmp,11,match1,£0,D.bmp,n,0.11000530000001163,0,10.322034800000438,10.33812829999988,,,,,,,,,,,457903,001,2023-12-06_22h34.22.861,ala-gemma-3-pairs,2023.2.3,60.42237658143039,2023-12-06 22h34.29.327735 +0000,
0,0,0,0,0,0,0,0,12,0,12,0,10.33812829999988,,,,,,,,,,,,,,,,,,,,,,,,,,,10.323046299999987,10.323738200000662,10.32379100000071,10.33812829999988,,10.536847800000032,10.536876200000734,10.553315099999963,10.553315099999963,10.553315099999963,10.553315099999963,10.621146800000133,m,0.05618699999922683,None,10.622187700000723,10.62287060000017,10.622905199999877,10.636317500000587,10.884955300000001,10.884970800000701,reward,1,£0,D.bmp,£50,O.bmp,£100,P.bmp,12,match1,£0,D.bmp,m,0.05618699999922683,1,10.885440300000482,,,,,,,,,,,,457903,001,2023-12-06_22h34.22.861,ala-gemma-3-pairs,2023.2.3,60.42237658143039,2023-12-06 22h34.29.327735 +0000,
0,0,0,0,0,0,0,0,13,0,13,0,10.901576100000057,,,,,,,,,,,,,,,,,,,,,,,,,,,10.885897200000727,10.886239200000091,10.886254300000473,10.901576100000057,11.102326600000197,11.085717900000418,11.08574420000059,11.102326600000197,11.102326600000197,11.102326600000197,11.102326600000197,11.137577500000589,n,0.029028800000560295,None,11.138649100000293,11.139410200000384,11.139444800000092,11.152524699999958,11.386582099999941,11.386620799999946,reward,1,£0,D.bmp,£50,O.bmp,£100,P.bmp,13,match3,£100,P.bmp,n,0.029028800000560295,0,11.38754659999995,11.40183320000051,,,,,,,,,,,457903,001,2023-12-06_22h34.22.861,ala-gemma-3-pairs,2023.2.3,60.42237658143039,2023-12-06 22h34.29.327735 +0000,
0,0,0,0,0,0,0,0,14,0,14,0,11.40183320000051,,,,,,,,,,,,,,,,,,,,,,,,,,,11.388677599999937,11.389374000000316,11.389416100000744,11.40183320000051,11.602248200000759,11.585619500000575,11.585644900000261,11.602248200000759,11.602248200000759,11.602248200000759,11.602248200000759,11.7021021999999,m,0.08481130000018311,None,11.702937200000633,11.703526700000111,11.703554300000178,11.717719400000533,11.95129470000029,11.951320099999975,reward,1,£0,D.bmp,£50,O.bmp,£100,P.bmp,14,match3,£100,P.bmp,m,0.08481130000018311,1,11.951880200000232,11.96718460000011,,,,,,,,,,,457903,001,2023-12-06_22h34.22.861,ala-gemma-3-pairs,2023.2.3,60.42237658143039,2023-12-06 22h34.29.327735 +0000,
0,0,0,0,0,0,0,0,15,0,15,0,11.96718460000011,,,,,,,,,,,,,,,,,,,,,,,,,,,11.952640200000133,11.953155500000321,11.953183300000092,11.96718460000011,12.167560000000776,12.15127510000002,12.151306700000532,12.167560000000776,12.167560000000776,12.167560000000776,12.167560000000776,12.218998700000157,n,0.03475879999950848,None,12.219990200000211,12.220706699999937,12.220738200000596,12.233537400000387,12.470288900000014,12.470339500000591,reward,1,£0,D.bmp,£50,O.bmp,£100,P.bmp,15,match2,£50,O.bmp,n,0.03475879999950848,0,12.471477800000685,12.48383720000038,,,,,,,,,,,457903,001,2023-12-06_22h34.22.861,ala-gemma-3-pairs,2023.2.3,60.42237658143039,2023-12-06 22h34.29.327735 +0000,
0,0,0,0,0,0,0,0,16,0,16,0,12.48383720000038,,,,,,,,,,,,,,,,,,,,,,,,,,,12.472880700000132,12.474010800000542,12.474065299999893,12.48383720000038,12.68344900000011,12.669179100000292,12.669227899999896,12.68344900000011,12.68344900000011,12.68344900000011,12.68344900000011,13.40045420000024,m,0.6994902000005823,None,13.401403100000607,13.401996300000064,13.402025200000026,13.415147400000023,13.650901700000759,13.650941700000658,reward,1,£0,D.bmp,£50,O.bmp,£100,P.bmp,16,match2,£50,O.bmp,m,0.6994902000005823,1,13.651748600000246,13.66646850000052,,,,,,,,,,,457903,001,2023-12-06_22h34.22.861,ala-gemma-3-pairs,2023.2.3,60.42237658143039,2023-12-06 22h34.29.327735 +0000,
0,0,0,0,0,0,0,0,17,0,17,0,13.66646850000052,,,,,,,,,,,,,,,,,,,,,,,,,,,13.652839200000017,13.653701700000056,13.65374360000078,13.66646850000052,,13.864557800000512,13.864577300000747,13.881801600000472,13.881801600000472,13.881801600000472,13.881801600000472,14.049818100000266,n,0.16035110000029817,None,14.050725000000057,14.051322100000107,14.051351400000385,14.065264500000012,14.300358899999992,14.300402800000484,reward,1,£0,D.bmp,£50,O.bmp,£100,P.bmp,17,match3,£100,P.bmp,n,0.16035110000029817,0,14.301345500000025,14.315761500000008,,,,,,,,,,,457903,001,2023-12-06_22h34.22.861,ala-gemma-3-pairs,2023.2.3,60.42237658143039,2023-12-06 22h34.29.327735 +0000,
0,0,0,0,0,0,0,0,18,0,18,0,14.315761500000008,,,,,,,,,,,,,,,,,,,,,,,,,,,14.30255070000021,14.303352400000222,14.303399700000227,14.315761500000008,14.529920800000582,14.4997271000002,14.499761900000522,14.529920800000582,14.529920800000582,14.529920800000582,14.529920800000582,14.96406449999995,m,0.433199500000228,None,14.96458789999997,14.964913000000706,14.964935500000138,14.980043700000351,15.213725999999951,15.213750400000208,reward,1,£0,D.bmp,£50,O.bmp,£100,P.bmp,18,match2,£50,O.bmp,m,0.433199500000228,1,15.214303000000655,15.229339900000014,,,,,,,,,,,457903,001,2023-12-06_22h34.22.861,ala-gemma-3-pairs,2023.2.3,60.42237658143039,2023-12-06 22h34.29.327735 +0000,
0,0,0,0,0,0,0,0,19,0,19,0,15.229339900000014,,,,,,,,,,,,,,,,,,,,,,,,,,,15.21499120000044,15.215523500000018,15.215549100000317,15.229339900000014,15.445801800000481,15.41592860000037,15.415979600000355,15.445801800000481,15.445801800000481,15.445801800000481,15.445801800000481,15.564683800000239,n,0.11373639999965235,None,15.565675300000294,15.566292100000283,15.566323900000498,15.579805500000475,15.814528800000517,15.814571100000649,reward,1,£0,D.bmp,£50,O.bmp,£100,P.bmp,19,mismatch,£0,P.bmp,n,0.11373639999965235,1,15.81554529999994,15.830386600000566,,,,,,,,,,,457903,001,2023-12-06_22h34.22.861,ala-gemma-3-pairs,2023.2.3,60.42237658143039,2023-12-06 22h34.29.327735 +0000,
0,0,0,0,0,0,0,0,20,0,20,0,15.830386600000566,,,,,,,,,,,,,,,,,,,,,,,,,,,15.816771700000572,15.81772010000077,15.817769400000543,15.830386600000566,,16.028183500000523,16.02819820000059,16.044905000000654,16.044905000000654,16.044905000000654,16.044905000000654,16.146626600000673,m,0.09021889999985433,None,16.147527699999955,16.148195400000077,16.148224600000503,16.161814800000684,16.39660340000046,16.396639900000082,reward,1,£0,D.bmp,£50,O.bmp,£100,P.bmp,20,mismatch,£0,O.bmp,m,0.09021889999985433,0,16.397418200000175,16.412048200000754,,,,,,,,,,,457903,001,2023-12-06_22h34.22.861,ala-gemma-3-pairs,2023.2.3,60.42237658143039,2023-12-06 22h34.29.327735 +0000,
0,0,0,0,0,0,0,0,21,0,21,0,16.412048200000754,,,,,,,,,,,,,,,,,,,,,,,,,,,16.398414700000103,16.399181200000385,16.39921990000039,16.412048200000754,16.611252400000012,16.595694800000274,16.59572509999998,16.611252400000012,16.611252400000012,16.611252400000012,16.611252400000012,16.662153799999942,n,0.04687980000016978,None,16.662918600000012,16.663474300000416,16.663498700000673,16.677875200000017,16.912078199999996,16.912109200000486,reward,1,£0,D.bmp,£50,O.bmp,£100,P.bmp,21,mismatch,£100,O.bmp,n,0.04687980000016978,1,16.91283790000034,16.92766860000029,,,,,,,,,,,457903,001,2023-12-06_22h34.22.861,ala-gemma-3-pairs,2023.2.3,60.42237658143039,2023-12-06 22h34.29.327735 +0000,
0,0,0,0,0,0,0,0,22,0,22,0,16.92766860000029,,,,,,,,,,,,,,,,,,,,,,,,,,,16.913746600000195,16.91445939999994,16.91450800000075,16.92766860000029,17.143308000000616,17.1141903000007,17.1142389000006,17.143308000000616,17.143308000000616,17.143308000000616,17.143308000000616,17.24736110000049,m,0.09696610000082728,None,17.248635700000705,17.249517500000366,17.249559200000476,17.27675360000012,17.511706300000697,17.511758100000407,reward,1,£0,D.bmp,£50,O.bmp,£100,P.bmp,22,mismatch,£50,D.bmp,m,0.09696610000082728,0,17.512699700000667,,,,,,,,,,,,457903,001,2023-12-06_22h34.22.861,ala-gemma-3-pairs,2023.2.3,60.42237658143039,2023-12-06 22h34.29.327735 +0000,
0,0,0,0,0,0,0,0,23,0,23,0,17.52697950000038,,,,,,,,,,,,,,,,,,,,,,,,,,,17.513680800000657,17.514428000000407,17.51446550000037,17.52697950000038,17.74265430000014,17.711316300000362,17.711347800000112,17.74265430000014,17.74265430000014,17.74265430000014,17.74265430000014,17.810450100000708,n,0.05442330000005313,None,17.81120480000027,17.81166800000028,17.811691800000517,17.826505500000167,18.07617240000036,18.076199000000088,reward,1,£0,D.bmp,£50,O.bmp,£100,P.bmp,23,mismatch,£0,O.bmp,n,0.05442330000005313,1,18.076751999999942,,,,,,,,,,,,457903,001,2023-12-06_22h34.22.861,ala-gemma-3-pairs,2023.2.3,60.42237658143039,2023-12-06 22h34.29.327735 +0000,
0,0,0,0,0,0,0,0,24,0,24,0,18.092168800000763,,,,,,,,,,,,,,,,,,,,,,,,,,,18.07731380000041,18.07772280000063,18.07774470000004,18.092168800000763,18.30927370000063,18.278924799999913,18.27896680000049,18.30927370000063,18.30927370000063,18.30927370000063,18.30927370000063,19.02491100000043,m,0.7055963000002521,None,19.02533570000014,19.025606600000174,19.025618500000746,19.04056860000037,19.27564330000041,19.275678200000584,reward,1,£0,D.bmp,£50,O.bmp,£100,P.bmp,24,match1,£0,D.bmp,m,0.7055963000002521,1,19.276420500000313,19.29133030000048,,,,,,,,,,,457903,001,2023-12-06_22h34.22.861,ala-gemma-3-pairs,2023.2.3,60.42237658143039,2023-12-06 22h34.29.327735 +0000,
0,0,0,0,0,0,0,0,25,0,25,0,19.29133030000048,,,,,,,,,,,,,,,,,,,,,,,,,,,19.27740040000026,19.2781358000002,19.278174000000035,19.29133030000048,19.490575900000294,19.47538160000022,19.475432700000056,19.490575900000294,19.490575900000294,19.490575900000294,19.490575900000294,19.62572369999998,n,0.12775699999929202,None,19.626793100000214,19.62747020000006,19.62750490000053,19.641446700000415,19.890057399999932,19.890075700000125,reward,1,£0,D.bmp,£50,O.bmp,£100,P.bmp,25,mismatch,£100,D.bmp,n,0.12775699999929202,1,19.890790299999935,,,,,,,,,,,,457903,001,2023-12-06_22h34.22.861,ala-gemma-3-pairs,2023.2.3,60.42237658143039,2023-12-06 22h34.29.327735 +0000,
0,0,0,0,0,0,0,0,26,0,26,0,19.90663980000045,,,,,,,,,,,,,,,,,,,,,,,,,,,19.891488900000695,19.892009200000757,19.892035400000168,19.90663980000045,20.106454800000392,20.09029940000073,20.09032230000048,20.106454800000392,20.106454800000392,20.106454800000392,20.106454800000392,20.192595400000755,m,0.077919500000462,None,20.193755500000407,20.194453500000236,20.194491500000368,20.2227268000006,20.457346700000016,20.45740400000068,reward,1,£0,D.bmp,£50,O.bmp,£100,P.bmp,26,mismatch,£100,O.bmp,m,0.077919500000462,0,20.458623500000613,,,,,,,,,,,,457903,001,2023-12-06_22h34.22.861,ala-gemma-3-pairs,2023.2.3,60.42237658143039,2023-12-06 22h34.29.327735 +0000,
0,0,0,0,0,0,0,0,27,0,27,0,20.472953400000733,,,,,,,,,,,,,,,,,,,,,,,,,,,20.459848800000145,20.460838400000284,20.460885000000417,20.472953400000733,20.68862480000007,20.657877000000553,20.657919900000707,20.68862480000007,20.68862480000007,20.68862480000007,20.68862480000007,20.739963400000306,n,0.0463129999998273,None,20.740489499999967,20.740856200000053,20.740872700000182,20.755040300000474,20.991399000000456,20.991430500000206,reward,1,£0,D.bmp,£50,O.bmp,£100,P.bmp,27,mismatch,£50,D.bmp,n,0.0463129999998273,1,20.992468800000097,,,,,,,,,,,,457903,001,2023-12-06_22h34.22.861,ala-gemma-3-pairs,2023.2.3,60.42237658143039,2023-12-06 22h34.29.327735 +0000,
0,0,0,0,0,0,0,0,28,0,28,0,21.00605700000051,,,,,,,,,,,,,,,,,,,,,,,,,,,20.993556200000057,20.994373200000155,20.994415300000583,21.00605700000051,21.205074100000274,21.19026860000031,21.190297699999974,21.205074100000274,21.205074100000274,21.205074100000274,21.205074100000274,21.289271000000554,m,0.07433880000007775,None,21.289908700000524,21.29034910000064,21.2903694000006,21.304569599999923,21.538947000000007,21.538970399999926,reward,1,£0,D.bmp,£50,O.bmp,£100,P.bmp,28,mismatch,£50,D.bmp,m,0.07433880000007775,0,21.53945780000049,21.554399500000727,,,,,,,,,,,457903,001,2023-12-06_22h34.22.861,ala-gemma-3-pairs,2023.2.3,60.42237658143039,2023-12-06 22h34.29.327735 +0000,
0,0,0,0,0,0,0,0,29,0,29,0,21.554399500000727,,,,,,,,,,,,,,,,,,,,,,,,,,,21.5400853000001,21.540522400000555,21.54054520000045,21.554399500000727,21.754879099999926,21.73905300000024,21.73908300000039,21.754879099999926,21.754879099999926,21.754879099999926,21.754879099999926,21.821517800000038,n,0.050578999999743246,None,21.82213210000009,21.822526700000708,21.82254610000018,21.837312500000735,22.07105800000045,22.071079199999986,reward,1,£0,D.bmp,£50,O.bmp,£100,P.bmp,29,match3,£100,P.bmp,n,0.050578999999743246,0,22.07155540000076,22.086951000000226,,,,,,,,,,,457903,001,2023-12-06_22h34.22.861,ala-gemma-3-pairs,2023.2.3,60.42237658143039,2023-12-06 22h34.29.327735 +0000,
0,0,0,0,1,0,1,0,0,0,0,0,23.035714600000574,,,,,,,,,,,,,,,,,,,,,,,23.02191800000037,23.022404800000004,23.022428500000387,23.02295680000043,23.023978199999874,23.024468999999954,23.02449330000036,23.035714600000574,23.23654280000028,23.22168640000018,23.22172750000027,23.23654280000028,23.23654280000028,23.23654280000028,23.23654280000028,23.321476000000075,m,0.06883060000018304,None,23.32310150000012,23.32391749999988,23.323955600000772,23.35250090000045,23.585161300000436,23.585179000000608,reward,2,£0,D.bmp,£50,O.bmp,£100,P.bmp,0,match3,£100,P.bmp,m,0.06883060000018304,1,23.58582100000058,,22.071717900000294,22.086951000000226,22.086951000000226,23.02085580000039,space,0.9247652000003654,None,,,,457903,001,2023-12-06_22h34.22.861,ala-gemma-3-pairs,2023.2.3,60.42237658143039,2023-12-06 22h34.29.327735 +0000,
0,0,0,0,1,0,1,0,1,0,1,0,23.60198280000077,,,,,,,,,,,,,,,,,,,,,,,,,,,23.58644060000006,23.586891599999944,23.586914500000603,23.60198280000077,23.802714800000103,23.787461700000677,23.787503700000343,23.802714800000103,23.802714800000103,23.802714800000103,23.802714800000103,24.22089230000074,n,0.4048269999993863,None,24.222288100000696,24.223163000000568,24.2232096000007,24.250875800000358,24.484799400000156,24.484824600000138,reward,2,£0,D.bmp,£50,O.bmp,£100,P.bmp,1,match3,£100,P.bmp,n,0.4048269999993863,0,24.485733500000606,,,,,,,,,,,,457903,001,2023-12-06_22h34.22.861,ala-gemma-3-pairs,2023.2.3,60.42237658143039,2023-12-06 22h34.29.327735 +0000,
0,0,0,0,1,0,1,0,2,0,2,0,24.501451800000723,,,,,,,,,,,,,,,,,,,,,,,,,,,24.486699200000658,24.48737930000061,24.487414199999876,24.501451800000723,24.717738100000133,24.68568420000065,24.68572210000002,24.717738100000133,24.717738100000133,24.717738100000133,24.717738100000133,25.100675700000465,m,0.3701041999993322,None,25.101266200000282,25.101647600000433,25.10166610000033,25.1174402000006,25.35096909999993,25.350999199999933,reward,2,£0,D.bmp,£50,O.bmp,£100,P.bmp,2,match2,£50,O.bmp,m,0.3701041999993322,1,25.35168650000014,25.366513100000702,,,,,,,,,,,457903,001,2023-12-06_22h34.22.861,ala-gemma-3-pairs,2023.2.3,60.42237658143039,2023-12-06 22h34.29.327735 +0000,
0,0,0,0,1,0,1,0,3,0,3,0,25.366513100000702,,,,,,,,,,,,,,,,,,,,,,,,,,,25.352534100000412,25.353135100000145,25.353166500000043,25.366513100000702,25.581731799999943,25.553050900000017,25.553099900000234,25.581731799999943,25.581731799999943,25.581731799999943,25.581731799999943,25.835020200000145,m,0.24538719999964087,None,25.836028700000497,25.83666859999994,25.83670340000026,25.84971029999997,26.083289900000636,26.083318500000132,reward,2,£0,D.bmp,£50,O.bmp,£100,P.bmp,3,mismatch,£0,P.bmp,m,0.24538719999964087,0,26.083931099999973,26.098794000000453,,,,,,,,,,,457903,001,2023-12-06_22h34.22.861,ala-gemma-3-pairs,2023.2.3,60.42237658143039,2023-12-06 22h34.29.327735 +0000,
0,0,0,0,1,0,1,0,4,0,4,0,26.098794000000453,,,,,,,,,,,,,,,,,,,,,,,,,,,26.084722800000236,26.085313999999926,26.08534370000052,26.098794000000453,26.31508290000056,26.28380820000075,26.283845400000246,26.31508290000056,26.31508290000056,26.31508290000056,26.31508290000056,26.434831900000063,m,0.10711590000028082,None,26.435975899999903,26.43669780000073,26.436734900000374,26.46447850000004,26.698944100000517,26.698971900000288,reward,2,£0,D.bmp,£50,O.bmp,£100,P.bmp,4,match2,£50,O.bmp,m,0.10711590000028082,1,26.699820400000135,,,,,,,,,,,,457903,001,2023-12-06_22h34.22.861,ala-gemma-3-pairs,2023.2.3,60.42237658143039,2023-12-06 22h34.29.327735 +0000,
0,0,0,0,1,0,1,0,5,0,5,0,26.716706500000328,,,,,,,,,,,,,,,,,,,,,,,,,,,26.700752499999908,26.701443599999948,26.7014779000001,26.716706500000328,,26.91611600000033,26.916156400000546,26.947079500000655,26.947079500000655,26.947079500000655,26.947079500000655,26.99863820000064,m,0.04063389999919309,None,26.99945410000055,26.999969299999975,26.999994800000422,27.013642300000356,27.24886620000052,27.24890039999991,reward,2,£0,D.bmp,£50,O.bmp,£100,P.bmp,5,mismatch,£0,O.bmp,m,0.04063389999919309,0,27.249600900000587,27.265071900000294,,,,,,,,,,,457903,001,2023-12-06_22h34.22.861,ala-gemma-3-pairs,2023.2.3,60.42237658143039,2023-12-06 22h34.29.327735 +0000,
0,0,0,0,1,0,1,0,6,0,6,0,27.265071900000294,,,,,,,,,,,,,,,,,,,,,,,,,,,27.250579800000196,27.25130630000058,27.251343500000075,27.265071900000294,,27.46475670000018,27.464787300000353,27.4967972000004,27.4967972000004,27.4967972000004,27.4967972000004,27.533501500000057,m,0.03177109999978711,None,27.53484759999992,27.535514300000614,27.535543599999983,27.546863700000358,27.780996000000414,27.78102029999991,reward,2,£0,D.bmp,£50,O.bmp,£100,P.bmp,6,match3,£100,P.bmp,m,0.03177109999978711,1,27.781539900000098,27.79621120000047,,,,,,,,,,,457903,001,2023-12-06_22h34.22.861,ala-gemma-3-pairs,2023.2.3,60.42237658143039,2023-12-06 22h34.29.327735 +0000,
0,0,0,0,1,0,1,0,7,0,7,0,27.79621120000047,,,,,,,,,,,,,,,,,,,,,,,,,,,27.782214200000453,27.78282660000059,27.78285219999998,27.79621120000047,28.01231220000045,27.983299800000168,27.98334740000064,28.01231220000045,28.01231220000045,28.01231220000045,28.01231220000045,28.063440900000387,m,0.04571849999956612,None,28.063988900000368,28.064333300000726,28.06435010000041,28.07907670000077,28.313578700000107,28.31361090000064,reward,2,£0,D.bmp,£50,O.bmp,£100,P.bmp,7,mismatch,£50,P.bmp,m,0.04571849999956612,0,28.314409200000227,28.329411400000026,,,,,,,,,,,457903,001,2023-12-06_22h34.22.861,ala-gemma-3-pairs,2023.2.3,60.42237658143039,2023-12-06 22h34.29.327735 +0000,
0,0,0,0,1,0,1,0,8,0,8,0,28.329411400000026,,,,,,,,,,,,,,,,,,,,,,,,,,,28.315329400000337,28.31600789999993,28.316042700000253,28.329411400000026,,28.52856100000008,28.528577600000062,28.545518700000684,28.545518700000684,28.545518700000684,28.545518700000684,28.63191319999987,m,0.06864450000011857,None,28.633213800000703,28.634013900000355,28.634071000000404,28.661982000000535,28.896166200000152,28.896192000000156,reward,2,£0,D.bmp,£50,O.bmp,£100,P.bmp,8,match3,£100,P.bmp,m,0.06864450000011857,1,28.896990799999912,,,,,,,,,,,,457903,001,2023-12-06_22h34.22.861,ala-gemma-3-pairs,2023.2.3,60.42237658143039,2023-12-06 22h34.29.327735 +0000,
0,0,0,0,1,0,1,0,9,0,9,0,28.912409800000205,,,,,,,,,,,,,,,,,,,,,,,,,,,28.89785329999995,28.898524300000645,28.898556400000416,28.912409800000205,29.11153640000066,29.09609520000049,29.096124800000325,29.11153640000066,29.11153640000066,29.11153640000066,29.11153640000066,29.12857239999994,m,0.004021600000669423,None,29.12909690000015,29.12942270000076,29.129445500000656,29.14432029999989,29.380475200000546,29.380516400000488,reward,2,£0,D.bmp,£50,O.bmp,£100,P.bmp,9,mismatch,£0,O.bmp,m,0.004021600000669423,0,29.381522300000142,29.39477800000077,,,,,,,,,,,457903,001,2023-12-06_22h34.22.861,ala-gemma-3-pairs,2023.2.3,60.42237658143039,2023-12-06 22h34.29.327735 +0000,
0,0,0,0,1,0,1,0,10,0,10,0,29.39477800000077,,,,,,,,,,,,,,,,,,,,,,,,,,,29.38277300000027,29.383631000000605,29.383677900000293,29.39477800000077,29.61022740000044,29.581793199999993,29.58184800000072,29.61022740000044,29.61022740000044,29.61022740000044,29.61022740000044,29.64511660000062,m,0.020605099999556842,None,29.64588989999993,29.64638130000003,29.64640529999997,29.66053430000011,29.895113300000048,29.8951433000002,reward,2,£0,D.bmp,£50,O.bmp,£100,P.bmp,10,mismatch,£50,D.bmp,m,0.020605099999556842,0,29.895804100000532,29.91013810000004,,,,,,,,,,,457903,001,2023-12-06_22h34.22.861,ala-gemma-3-pairs,2023.2.3,60.42237658143039,2023-12-06 22h34.29.327735 +0000,
0,0,0,0,1,0,1,0,11,0,11,0,29.91013810000004,,,,,,,,,,,,,,,,,,,,,,,,,,,29.89666650000072,29.89724910000041,29.89728120000018,29.91013810000004,30.110494800000197,30.09448969999994,30.094515000000683,30.110494800000197,30.110494800000197,30.110494800000197,30.110494800000197,30.17849340000066,m,0.05706019999979617,None,30.179484700000103,30.180128500000137,30.18016080000052,30.19307000000026,30.428216300000713,30.428248900000654,reward,2,£0,D.bmp,£50,O.bmp,£100,P.bmp,11,match2,£50,O.bmp,m,0.05706019999979617,1,30.428988000000572,30.44338610000068,,,,,,,,,,,457903,001,2023-12-06_22h34.22.861,ala-gemma-3-pairs,2023.2.3,60.42237658143039,2023-12-06 22h34.29.327735 +0000,
0,0,0,0,1,0,1,0,12,0,12,0,30.44338610000068,,,,,,,,,,,,,,,,,,,,,,,,,,,30.429919100000006,30.43064570000024,30.43068040000071,30.44338610000068,30.643118200000572,30.62758010000016,30.62760849999995,30.643118200000572,30.643118200000572,30.643118200000572,30.643118200000572,30.67848110000068,m,0.025011300000187475,None,30.67963090000012,30.680384600000252,30.680422800000088,30.709470499999952,30.943931200000407,30.94398799999999,reward,2,£0,D.bmp,£50,O.bmp,£100,P.bmp,12,mismatch,£50,P.bmp,m,0.025011300000187475,0,30.945199499999944,,,,,,,,,,,,457903,001,2023-12-06_22h34.22.861,ala-gemma-3-pairs,2023.2.3,60.42237658143039,2023-12-06 22h34.29.327735 +0000,
0,0,0,0,1,0,1,0,13,0,13,0,30.960266300000512,,,,,,,,,,,,,,,,,,,,,,,,,,,30.94644640000024,30.947367900000245,30.94741470000008,30.960266300000512,,31.159439300000486,31.159463700000742,31.191569399999935,31.191569399999935,31.191569399999935,31.191569399999935,31.66089749999992,m,0.4613677000006646,None,31.662049300000035,31.662731299999905,31.66276900000048,31.691048000000592,31.926404200000434,31.92644569999993,reward,2,£0,D.bmp,£50,O.bmp,£100,P.bmp,13,match1,£0,D.bmp,m,0.4613677000006646,1,31.92772260000038,,,,,,,,,,,,457903,001,2023-12-06_22h34.22.861,ala-gemma-3-pairs,2023.2.3,60.42237658143039,2023-12-06 22h34.29.327735 +0000,
0,0,0,0,1,0,1,0,14,0,14,0,31.942522600000302,,,,,,,,,,,,,,,,,,,,,,,,,,,31.929112600000735,31.93008700000064,31.93013990000054,31.942522600000302,,32.14070250000077,32.14072120000037,32.15708489999997,32.15708489999997,32.15708489999997,32.15708489999997,32.208569700000226,m,0.03800830000000133,None,32.209376600000724,32.209935900000346,32.209962500000074,32.22400270000071,32.457124500000646,32.4571420000002,reward,2,£0,D.bmp,£50,O.bmp,£100,P.bmp,14,mismatch,£0,O.bmp,m,0.03800830000000133,0,32.457541600000695,32.47303069999998,,,,,,,,,,,457903,001,2023-12-06_22h34.22.861,ala-gemma-3-pairs,2023.2.3,60.42237658143039,2023-12-06 22h34.29.327735 +0000,
0,0,0,0,1,0,1,0,15,0,15,0,32.47303069999998,,,,,,,,,,,,,,,,,,,,,,,,,,,32.45804270000008,32.45839700000033,32.458413199999995,32.47303069999998,32.67318240000077,32.657470699999976,32.65750939999998,32.67318240000077,32.67318240000077,32.67318240000077,32.67318240000077,32.72471709999991,m,0.035412799999903655,None,32.72551300000032,32.72606050000013,32.726085799999964,32.74007700000038,32.97339420000026,32.97341360000064,reward,2,£0,D.bmp,£50,O.bmp,£100,P.bmp,15,mismatch,£0,P.bmp,m,0.035412799999903655,0,32.9738253000005,32.98924100000022,,,,,,,,,,,457903,001,2023-12-06_22h34.22.861,ala-gemma-3-pairs,2023.2.3,60.42237658143039,2023-12-06 22h34.29.327735 +0000,
0,0,0,0,1,0,1,0,16,0,16,0,32.98924100000022,,,,,,,,,,,,,,,,,,,,,,,,,,,32.97435930000029,32.97482390000005,32.97484320000058,32.98924100000022,33.1903413,33.17362400000002,33.173651099999915,33.1903413,33.1903413,33.1903413,33.1903413,33.64116590000049,m,0.4361664000007295,None,33.64203110000017,33.64259240000047,33.64261960000022,33.65547030000016,33.8906692999999,33.89070720000018,reward,2,£0,D.bmp,£50,O.bmp,£100,P.bmp,16,mismatch,£100,O.bmp,m,0.4361664000007295,0,33.89152400000057,33.90515630000027,,,,,,,,,,,457903,001,2023-12-06_22h34.22.861,ala-gemma-3-pairs,2023.2.3,60.42237658143039,2023-12-06 22h34.29.327735 +0000,
0,0,0,0,1,0,1,0,17,0,17,0,33.90515630000027,,,,,,,,,,,,,,,,,,,,,,,,,,,33.89263570000003,33.89345940000021,33.893500800000766,33.90515630000027,34.10486900000069,34.089600000000246,34.08962360000078,34.10486900000069,34.10486900000069,34.10486900000069,34.10486900000069,34.13964510000005,m,0.021402299999863317,None,34.1403835000001,34.140855000000556,34.14088290000018,34.15503390000049,34.39050180000049,34.39054450000003,reward,2,£0,D.bmp,£50,O.bmp,£100,P.bmp,17,mismatch,£50,D.bmp,m,0.021402299999863317,0,34.39156770000045,34.40528059999997,,,,,,,,,,,457903,001,2023-12-06_22h34.22.861,ala-gemma-3-pairs,2023.2.3,60.42237658143039,2023-12-06 22h34.29.327735 +0000,
0,0,0,0,1,0,1,0,18,0,18,0,34.40528059999997,,,,,,,,,,,,,,,,,,,,,,,,,,,34.39279960000022,34.39366860000064,34.39373710000018,34.40528059999997,34.620397000000594,34.591610200000105,34.591657300000406,34.620397000000594,34.620397000000594,34.620397000000594,34.620397000000594,34.63890750000064,m,0.008794499999567051,None,34.639568900000086,34.64000770000075,34.640028200000415,34.654421600000205,34.88937950000036,34.88942230000066,reward,2,£0,D.bmp,£50,O.bmp,£100,P.bmp,18,mismatch,£100,O.bmp,m,0.008794499999567051,0,34.89037300000018,34.904828100000486,,,,,,,,,,,457903,001,2023-12-06_22h34.22.861,ala-gemma-3-pairs,2023.2.3,60.42237658143039,2023-12-06 22h34.29.327735 +0000,
0,0,0,0,1,0,1,0,19,0,19,0,34.904828100000486,,,,,,,,,,,,,,,,,,,,,,,,,,,34.89156820000062,34.89246920000005,34.89251570000033,34.904828100000486,,35.104609100000744,35.10463400000026,35.13696440000058,35.13696440000058,35.13696440000058,35.13696440000058,35.570932300000095,m,0.4238301000004867,None,35.57168720000027,35.57217480000054,35.57219870000063,35.586131600000044,35.82333060000019,35.82338840000011,reward,2,£0,D.bmp,£50,O.bmp,£100,P.bmp,19,mismatch,£50,P.bmp,m,0.4238301000004867,0,35.824717400000736,35.8368859000002,,,,,,,,,,,457903,001,2023-12-06_22h34.22.861,ala-gemma-3-pairs,2023.2.3,60.42237658143039,2023-12-06 22h34.29.327735 +0000,
0,0,0,0,1,0,1,0,20,0,20,0,35.8368859000002,,,,,,,,,,,,,,,,,,,,,,,,,,,35.82622910000009,35.8269764000006,35.82701420000012,35.8368859000002,36.05158060000031,36.022584400000596,36.02264070000001,36.05158060000031,36.05158060000031,36.05158060000031,36.05158060000031,36.15328630000022,m,0.09094209999966552,None,36.15399340000022,36.154525800000556,36.1545485000006,36.16834220000055,36.405573100000765,36.40565240000069,reward,2,£0,D.bmp,£50,O.bmp,£100,P.bmp,20,mismatch,£100,D.bmp,m,0.09094209999966552,0,36.40704050000022,36.419068200000766,,,,,,,,,,,457903,001,2023-12-06_22h34.22.861,ala-gemma-3-pairs,2023.2.3,60.42237658143039,2023-12-06 22h34.29.327735 +0000,
0,0,0,0,1,0,1,0,21,0,21,0,36.419068200000766,,,,,,,,,,,,,,,,,,,,,,,,,,,36.40868219999993,36.40966019999996,36.40969750000022,36.419068200000766,36.61806350000006,36.602330300000176,36.60235250000005,36.61806350000006,36.61806350000006,36.61806350000006,36.61806350000006,36.65215720000015,m,0.02674380000007659,None,36.652721600000405,36.653121600000304,36.65313940000033,36.66772590000073,36.90415910000047,36.90420180000001,reward,2,£0,D.bmp,£50,O.bmp,£100,P.bmp,21,match3,£100,P.bmp,m,0.02674380000007659,1,36.90564170000016,,,,,,,,,,,,457903,001,2023-12-06_22h34.22.861,ala-gemma-3-pairs,2023.2.3,60.42237658143039,2023-12-06 22h34.29.327735 +0000,
0,0,0,0,1,0,1,0,22,0,22,0,36.91977250000036,,,,,,,,,,,,,,,,,,,,,,,,,,,36.90733,36.90868649999993,36.908750900000086,36.91977250000036,,37.11724430000049,37.11726210000052,37.13384120000046,37.13384120000046,37.13384120000046,37.13384120000046,37.60169450000012,m,0.45176529999935156,None,37.6024879000006,37.60296070000004,37.60298650000004,37.617084100000284,37.852471300000616,37.852513400000134,reward,2,£0,D.bmp,£50,O.bmp,£100,P.bmp,22,match1,£0,D.bmp,m,0.45176529999935156,1,37.85343940000075,37.868209500000376,,,,,,,,,,,457903,001,2023-12-06_22h34.22.861,ala-gemma-3-pairs,2023.2.3,60.42237658143039,2023-12-06 22h34.29.327735 +0000,
0,0,0,0,1,0,1,0,23,0,23,0,37.868209500000376,,,,,,,,,,,,,,,,,,,,,,,,,,,37.85462869999992,37.85548550000021,37.85553230000005,37.868209500000376,,38.06753420000041,38.067563300000074,38.09982420000051,38.09982420000051,38.09982420000051,38.09982420000051,38.43421860000035,m,0.3177310999999463,None,38.435149200000524,38.43574250000074,38.435772000000725,38.44936740000048,38.68365900000026,38.68368470000041,reward,2,£0,D.bmp,£50,O.bmp,£100,P.bmp,23,match2,£50,O.bmp,m,0.3177310999999463,1,38.68423359999997,38.69909009999992,,,,,,,,,,,457903,001,2023-12-06_22h34.22.861,ala-gemma-3-pairs,2023.2.3,60.42237658143039,2023-12-06 22h34.29.327735 +0000,
0,0,0,0,1,0,1,0,24,0,24,0,38.69909009999992,,,,,,,,,,,,,,,,,,,,,,,,,,,38.684923400000116,38.68549580000035,38.68552140000065,38.69909009999992,38.89882810000017,38.88264570000047,38.88266999999996,38.89882810000017,38.89882810000017,38.89882810000017,38.89882810000017,39.416585800000576,m,0.5150158999995256,None,39.4173866000001,39.417939700000716,39.41796550000072,39.43119139999999,39.66460619999998,39.664629900000364,reward,2,£0,D.bmp,£50,O.bmp,£100,P.bmp,24,match1,£0,D.bmp,m,0.5150158999995256,1,39.66513610000038,39.680834499999946,,,,,,,,,,,457903,001,2023-12-06_22h34.22.861,ala-gemma-3-pairs,2023.2.3,60.42237658143039,2023-12-06 22h34.29.327735 +0000,
0,0,0,0,1,0,1,0,25,0,25,0,39.680834499999946,,,,,,,,,,,,,,,,,,,,,,,,,,,39.665774000000056,39.66627510000035,39.66629920000014,39.680834499999946,39.88047590000042,39.865423199999896,39.865455699999984,39.88047590000042,39.88047590000042,39.88047590000042,39.88047590000042,40.24814930000048,m,0.35681900000054156,None,40.248810900000535,40.249177200000304,40.24919769999997,40.26350150000053,40.49938530000054,40.49943440000061,reward,2,£0,D.bmp,£50,O.bmp,£100,P.bmp,25,mismatch,£50,D.bmp,m,0.35681900000054156,0,40.50048480000078,40.51358110000001,,,,,,,,,,,457903,001,2023-12-06_22h34.22.861,ala-gemma-3-pairs,2023.2.3,60.42237658143039,2023-12-06 22h34.29.327735 +0000,
0,0,0,0,1,0,1,0,26,0,26,0,40.51358110000001,,,,,,,,,,,,,,,,,,,,,,,,,,,40.50189430000046,40.50274460000037,40.50277890000052,40.51358110000001,40.72901700000057,40.698582900000474,40.69862540000031,40.72901700000057,40.72901700000057,40.72901700000057,40.72901700000057,40.980431700000736,m,0.24505320000025677,None,40.9811466000001,40.9816079000002,40.98163050000039,40.99572680000074,41.22954170000048,41.229562200000146,reward,2,£0,D.bmp,£50,O.bmp,£100,P.bmp,26,match1,£0,D.bmp,m,0.24505320000025677,1,41.22997840000062,41.244969800000035,,,,,,,,,,,457903,001,2023-12-06_22h34.22.861,ala-gemma-3-pairs,2023.2.3,60.42237658143039,2023-12-06 22h34.29.327735 +0000,
0,0,0,0,1,0,1,0,27,0,27,0,41.244969800000035,,,,,,,,,,,,,,,,,,,,,,,,,,,41.23054230000071,41.23094310000033,41.23096320000059,41.244969800000035,41.445176100000026,41.430640100000346,41.43067280000014,41.445176100000026,41.445176100000026,41.445176100000026,41.445176100000026,41.74632440000005,m,0.2988043999994261,None,41.74696470000072,41.74737550000009,41.747395600000345,41.76098820000061,41.994882700000744,41.99490229999992,reward,2,£0,D.bmp,£50,O.bmp,£100,P.bmp,27,match2,£50,O.bmp,m,0.2988043999994261,1,41.9953101000001,42.0107751000005,,,,,,,,,,,457903,001,2023-12-06_22h34.22.861,ala-gemma-3-pairs,2023.2.3,60.42237658143039,2023-12-06 22h34.29.327735 +0000,
0,0,0,0,1,0,1,0,28,0,28,0,42.0107751000005,,,,,,,,,,,,,,,,,,,,,,,,,,,41.995830200000455,41.99624760000006,41.99626680000074,42.0107751000005,42.210954900000615,42.19582080000055,42.19584780000059,42.210954900000615,42.210954900000615,42.210954900000615,42.210954900000615,42.49717510000028,m,0.2679189000000406,None,42.49845450000066,42.49933830000009,42.499379599999884,42.52671180000016,42.760100800000146,42.76012130000072,reward,2,£0,D.bmp,£50,O.bmp,£100,P.bmp,28,mismatch,£100,D.bmp,m,0.2679189000000406,0,42.760819699999956,,,,,,,,,,,,457903,001,2023-12-06_22h34.22.861,ala-gemma-3-pairs,2023.2.3,60.42237658143039,2023-12-06 22h34.29.327735 +0000,
0,0,0,0,1,0,1,0,29,0,29,0,42.77664320000076,,,,,,,,,,,,,,,,,,,,,,,,,,,42.76152960000036,42.76204130000042,42.76207720000002,42.77664320000076,42.9764095999999,42.960951099999875,42.96098090000032,42.9764095999999,42.9764095999999,42.9764095999999,42.9764095999999,43.1444019999999,n,0.16482509999968897,None,43.14516850000018,43.14566770000056,43.145691499999884,43.159378900000775,43.39465150000069,43.39470020000044,reward,2,£0,D.bmp,£50,O.bmp,£100,P.bmp,29,match1,£0,D.bmp,n,0.16482509999968897,0,43.39553410000008,43.44230310000057,,,,,,,,,,,457903,001,2023-12-06_22h34.22.861,ala-gemma-3-pairs,2023.2.3,60.42237658143039,2023-12-06 22h34.29.327735 +0000,
1,0,1,0,0,0,0,0,0,0,0,0,44.40754240000024,,,,,,43.39691850000054,43.397713500000464,43.39775330000066,43.44230310000057,43.44230310000057,43.44230310000057,43.44230310000057,43.44230310000057,43.44230310000057,43.44230310000057,43.44230310000057,44.392047600000296,space,0.942440899999383,None,44.392481700000644,44.39286500000071,44.39356020000014,44.39396350000061,44.393981500000336,44.39438510000036,44.39512580000064,44.39550580000014,44.395523900000626,44.40754240000024,44.62388379999993,44.594022100000075,44.59406990000025,44.62388379999993,44.62388379999993,44.62388379999993,44.62388379999993,44.71039640000072,n,0.07182789999933448,None,44.71162790000017,44.712157599999955,44.7121831000004,44.72425890000068,44.958920000000035,44.958948899999996,control,1,earth,S.bmp,air,C.bmp,sky,T.bmp,0,match3,sky,T.bmp,n,0.07182789999933448,0,44.95964540000023,44.973723000000064,43.395786099999896,,,43.395896100000755,None,,,,,,457903,001,2023-12-06_22h34.22.861,ala-gemma-3-pairs,2023.2.3,60.42237658143039,2023-12-06 22h34.29.327735 +0000,
1,0,1,0,0,0,0,0,1,0,1,0,44.973723000000064,,,,,,,,,,,,,,,,,,,,,,,,,,,44.96047300000009,44.96115770000051,44.96118970000043,44.973723000000064,45.174586200000704,45.15833230000044,45.158359900000505,45.174586200000704,45.174586200000704,45.174586200000704,45.174586200000704,45.24330860000009,n,0.05071570000018255,None,45.244622600000184,45.24552290000065,45.24556500000017,45.27316280000014,45.50648600000022,45.506506400000035,control,1,earth,S.bmp,air,C.bmp,sky,T.bmp,1,mismatch,earth,T.bmp,n,0.05071570000018255,1,45.50721750000048,,,,,,,,,,,,457903,001,2023-12-06_22h34.22.861,ala-gemma-3-pairs,2023.2.3,60.42237658143039,2023-12-06 22h34.29.327735 +0000,
1,0,1,0,0,0,0,0,2,0,2,0,45.52288219999991,,,,,,,,,,,,,,,,,,,,,,,,,,,45.50793980000071,45.50846929999989,45.508495300000504,45.52288219999991,45.739122700000735,45.70836050000071,45.70839150000029,45.739122700000735,45.739122700000735,45.739122700000735,45.739122700000735,45.8075458000003,n,0.058847899999818765,None,45.808340900000076,45.80887250000069,45.80889910000042,45.823391800000536,46.05782140000065,46.057856000000356,control,1,earth,S.bmp,air,C.bmp,sky,T.bmp,2,match3,sky,T.bmp,n,0.058847899999818765,0,46.05866250000054,46.07290080000075,,,,,,,,,,,457903,001,2023-12-06_22h34.22.861,ala-gemma-3-pairs,2023.2.3,60.42237658143039,2023-12-06 22h34.29.327735 +0000,
1,0,1,0,0,0,0,0,3,0,3,0,46.07290080000075,,,,,,,,,,,,,,,,,,,,,,,,,,,46.05964810000023,46.06040660000053,46.06045670000003,46.07290080000075,,46.27252780000072,46.27254670000002,46.289237900000444,46.289237900000444,46.289237900000444,46.289237900000444,46.30752290000055,n,0.008900499999981548,None,46.30843189999996,46.30912520000038,46.309155300000384,46.322677200000726,46.55663360000017,46.556676100000004,control,1,earth,S.bmp,air,C.bmp,sky,T.bmp,3,mismatch,earth,C.bmp,n,0.008900499999981548,1,46.55735379999987,46.57223840000006,,,,,,,,,,,457903,001,2023-12-06_22h34.22.861,ala-gemma-3-pairs,2023.2.3,60.42237658143039,2023-12-06 22h34.29.327735 +0000,
1,0,1,0,0,0,0,0,4,0,4,0,46.57223840000006,,,,,,,,,,,,,,,,,,,,,,,,,,,46.558136800000284,46.55872210000052,46.558751100000336,46.57223840000006,46.77244719999999,46.75624060000064,46.75627210000039,46.77244719999999,46.77244719999999,46.77244719999999,46.77244719999999,46.90591690000019,m,0.13113940000039292,None,46.9067014000002,46.90718560000005,46.907209500000135,46.92073150000033,47.1548044000001,47.15482830000019,control,1,earth,S.bmp,air,C.bmp,sky,T.bmp,4,match1,earth,S.bmp,m,0.13113940000039292,1,47.1553442000004,47.170881300000474,,,,,,,,,,,457903,001,2023-12-06_22h34.22.861,ala-gemma-3-pairs,2023.2.3,60.42237658143039,2023-12-06 22h34.29.327735 +0000,
1,0,1,0,0,0,0,0,5,0,5,0,47.170881300000474,,,,,,,,,,,,,,,,,,,,,,,,,,,47.156013200000416,47.15649209999992,47.156515700000455,47.170881300000474,47.387582700000166,47.35721570000078,47.3572635999999,47.387582700000166,47.387582700000166,47.387582700000166,47.387582700000166,47.5379767000004,m,0.14352320000034524,None,47.53857260000041,47.538945300000705,47.5389638000006,47.55354350000016,47.787832200000594,47.78785860000062,control,1,earth,S.bmp,air,C.bmp,sky,T.bmp,5,match2,air,C.bmp,m,0.14352320000034524,1,47.78849420000006,47.80340909999995,,,,,,,,,,,457903,001,2023-12-06_22h34.22.861,ala-gemma-3-pairs,2023.2.3,60.42237658143039,2023-12-06 22h34.29.327735 +0000,
1,0,1,0,0,0,0,0,6,0,6,0,47.80340909999995,,,,,,,,,,,,,,,,,,,,,,,,,,,47.7892683,47.789937000000464,47.7899666000003,47.80340909999995,48.01950040000065,47.99001550000048,47.99006410000038,48.01950040000065,48.01950040000065,48.01950040000065,48.01950040000065,48.10456470000008,m,0.07132309999997233,None,48.1052337000001,48.10557840000001,48.10559009999997,48.11918659999992,48.35601020000013,48.35605670000041,control,1,earth,S.bmp,air,C.bmp,sky,T.bmp,6,mismatch,earth,T.bmp,m,0.07132309999997233,0,48.357215400000314,48.37112479999996,,,,,,,,,,,457903,001,2023-12-06_22h34.22.861,ala-gemma-3-pairs,2023.2.3,60.42237658143039,2023-12-06 22h34.29.327735 +0000,
1,0,1,0,0,0,0,0,7,0,7,0,48.37112479999996,,,,,,,,,,,,,,,,,,,,,,,,,,,48.358661700000084,48.35971479999989,48.3597690000006,48.37112479999996,,48.56966400000056,48.56968760000018,48.58604749999995,48.58604749999995,48.58604749999995,48.58604749999995,48.65336930000012,m,0.06492789999992965,None,48.654021100000136,48.65442890000031,48.654449300000124,48.668609900000774,48.90461030000006,48.90465910000057,control,1,earth,S.bmp,air,C.bmp,sky,T.bmp,7,mismatch,sky,S.bmp,m,0.06492789999992965,0,48.90615390000039,,,,,,,,,,,,457903,001,2023-12-06_22h34.22.861,ala-gemma-3-pairs,2023.2.3,60.42237658143039,2023-12-06 22h34.29.327735 +0000,
1,0,1,0,0,0,0,0,8,0,8,0,48.920711600000686,,,,,,,,,,,,,,,,,,,,,,,,,,,48.907536400000026,48.908667500000774,48.90872020000006,48.920711600000686,49.13557910000054,49.104801500000576,49.10485940000035,49.13557910000054,49.13557910000054,49.13557910000054,49.13557910000054,49.185641099999884,m,0.035048900000219874,None,49.18618870000046,49.18654400000014,49.18656069999997,49.20129580000048,49.435735200000636,49.435760800000025,control,1,earth,S.bmp,air,C.bmp,sky,T.bmp,8,mismatch,air,T.bmp,m,0.035048900000219874,0,49.436362200000076,49.45192870000028,,,,,,,,,,,457903,001,2023-12-06_22h34.22.861,ala-gemma-3-pairs,2023.2.3,60.42237658143039,2023-12-06 22h34.29.327735 +0000,
1,0,1,0,0,0,0,0,9,0,9,0,49.45192870000028,,,,,,,,,,,,,,,,,,,,,,,,,,,49.43709000000035,49.43766779999987,49.437694700000065,49.45192870000028,49.66736300000048,49.63841430000048,49.638462300000356,49.66736300000048,49.66736300000048,49.66736300000048,49.66736300000048,49.70170080000025,m,0.03191999999944528,None,49.70227299999988,49.70263740000064,49.7026549000002,49.71721780000007,49.951885200000106,49.95192550000047,control,1,earth,S.bmp,air,C.bmp,sky,T.bmp,9,mismatch,sky,C.bmp,m,0.03191999999944528,0,49.95248140000058,49.967834300000504,,,,,,,,,,,457903,001,2023-12-06_22h34.22.861,ala-gemma-3-pairs,2023.2.3,60.42237658143039,2023-12-06 22h34.29.327735 +0000,
1,0,1,0,0,0,0,0,10,0,10,0,49.967834300000504,,,,,,,,,,,,,,,,,,,,,,,,,,,49.95316790000015,49.95365480000055,49.95368000000053,49.967834300000504,50.167990400000235,50.15208370000073,50.15211619999991,50.167990400000235,50.167990400000235,50.167990400000235,50.167990400000235,50.23617430000013,m,0.06376920000002428,None,50.23714999999993,50.23781750000035,50.23784980000073,50.25022310000077,50.48648630000025,50.486528100000214,control,1,earth,S.bmp,air,C.bmp,sky,T.bmp,10,match3,sky,T.bmp,m,0.06376920000002428,1,50.487574900000254,50.50162300000011,,,,,,,,,,,457903,001,2023-12-06_22h34.22.861,ala-gemma-3-pairs,2023.2.3,60.42237658143039,2023-12-06 22h34.29.327735 +0000,
1,0,1,0,0,0,0,0,11,0,11,0,50.50162300000011,,,,,,,,,,,,,,,,,,,,,,,,,,,50.48878920000061,50.48964960000012,50.48971239999992,50.50162300000011,50.71747780000078,50.68621940000048,50.686262300000635,50.71747780000078,50.71747780000078,50.71747780000078,50.71747780000078,50.85020059999988,m,0.1176487000002453,None,50.85082050000074,50.85122080000019,50.85123999999996,50.865816300000006,51.099731500000416,51.09975480000048,control,1,earth,S.bmp,air,C.bmp,sky,T.bmp,11,match2,air,C.bmp,m,0.1176487000002453,1,51.100291700000525,51.11586410000018,,,,,,,,,,,457903,001,2023-12-06_22h34.22.861,ala-gemma-3-pairs,2023.2.3,60.42237658143039,2023-12-06 22h34.29.327735 +0000,
1,0,1,0,0,0,0,0,12,0,12,0,51.11586410000018,,,,,,,,,,,,,,,,,,,,,,,,,,,51.10101290000057,51.10153210000044,51.101570300000276,51.11586410000018,51.33181530000002,51.30321490000006,51.30326950000017,51.33181530000002,51.33181530000002,51.33181530000002,51.33181530000002,51.400492900000245,m,0.05129379999925732,None,51.401416400000016,51.40196090000063,51.401990400000614,51.415714100000514,51.651147200000196,51.65119060000052,control,1,earth,S.bmp,air,C.bmp,sky,T.bmp,12,mismatch,sky,S.bmp,m,0.05129379999925732,0,51.652144800000315,51.665494599999874,,,,,,,,,,,457903,001,2023-12-06_22h34.22.861,ala-gemma-3-pairs,2023.2.3,60.42237658143039,2023-12-06 22h34.29.327735 +0000,
1,0,1,0,0,0,0,0,13,0,13,0,51.665494599999874,,,,,,,,,,,,,,,,,,,,,,,,,,,51.65316770000027,51.65372920000027,51.653774800000065,51.665494599999874,,51.86471140000049,51.86473040000055,51.881117599999925,51.881117599999925,51.881117599999925,51.881117599999925,51.965830500000266,m,0.08247219999975641,None,51.96659340000042,51.967146900000444,51.96717080000053,51.98144950000005,52.215968299999986,52.21600550000039,control,1,earth,S.bmp,air,C.bmp,sky,T.bmp,13,match1,earth,S.bmp,m,0.08247219999975641,1,52.21691610000016,52.23168710000027,,,,,,,,,,,457903,001,2023-12-06_22h34.22.861,ala-gemma-3-pairs,2023.2.3,60.42237658143039,2023-12-06 22h34.29.327735 +0000,
1,0,1,0,0,0,0,0,14,0,14,0,52.23168710000027,,,,,,,,,,,,,,,,,,,,,,,,,,,52.21796880000056,52.21885640000073,52.21889790000023,52.23168710000027,,52.431046400000014,52.4310688000005,52.44777789999989,52.44777789999989,52.44777789999989,52.44777789999989,52.58242630000041,m,0.13304140000036568,None,52.58330400000068,52.583839900000385,52.5838676000003,52.59730230000059,52.83291730000019,52.832966200000556,control,1,earth,S.bmp,air,C.bmp,sky,T.bmp,14,mismatch,air,S.bmp,m,0.13304140000036568,0,52.83411720000004,52.84874560000026,,,,,,,,,,,457903,001,2023-12-06_22h34.22.861,ala-gemma-3-pairs,2023.2.3,60.42237658143039,2023-12-06 22h34.29.327735 +0000,
1,0,1,0,0,0,0,0,15,0,15,0,52.84874560000026,,,,,,,,,,,,,,,,,,,,,,,,,,,52.83549060000041,52.83655429999999,52.836606400000164,52.84874560000026,53.063070100000004,53.032676300000276,53.03271430000041,53.063070100000004,53.063070100000004,53.063070100000004,53.063070100000004,53.19759030000023,m,0.12699140000040643,None,53.198229300000094,53.198639500000354,53.19865960000061,53.21251770000072,53.448283300000185,53.44832620000034,control,1,earth,S.bmp,air,C.bmp,sky,T.bmp,15,mismatch,earth,C.bmp,m,0.12699140000040643,0,53.449324700000034,53.46352630000001,,,,,,,,,,,457903,001,2023-12-06_22h34.22.861,ala-gemma-3-pairs,2023.2.3,60.42237658143039,2023-12-06 22h34.29.327735 +0000,
1,0,1,0,0,0,0,0,16,0,16,0,53.46352630000001,,,,,,,,,,,,,,,,,,,,,,,,,,,53.45062970000072,53.45160820000001,53.45165470000029,53.46352630000001,,53.66311490000044,53.663163400000485,53.67937979999988,53.67937979999988,53.67937979999988,53.67937979999988,53.76436020000074,m,0.06860200000028271,None,53.76536590000069,53.766016800000216,53.766060100000686,53.7804715000002,54.02986899999996,54.029898499999945,control,1,earth,S.bmp,air,C.bmp,sky,T.bmp,16,mismatch,air,T.bmp,m,0.06860200000028271,0,54.03087830000004,,,,,,,,,,,,457903,001,2023-12-06_22h34.22.861,ala-gemma-3-pairs,2023.2.3,60.42237658143039,2023-12-06 22h34.29.327735 +0000,
1,0,1,0,0,0,0,0,17,0,17,0,54.04565400000047,,,,,,,,,,,,,,,,,,,,,,,,,,,54.031913100000565,54.03263050000078,54.03269,54.04565400000047,54.24627170000076,54.2306537000004,54.230688999999984,54.24627170000076,54.24627170000076,54.24627170000076,54.24627170000076,54.36234930000046,m,0.1100137999992512,None,54.36299959999997,54.36341640000046,54.36343660000057,54.378040200000214,54.61288970000078,54.61291690000053,control,1,earth,S.bmp,air,C.bmp,sky,T.bmp,17,match2,air,C.bmp,m,0.1100137999992512,1,54.61355619999995,54.62891390000004,,,,,,,,,,,457903,001,2023-12-06_22h34.22.861,ala-gemma-3-pairs,2023.2.3,60.42237658143039,2023-12-06 22h34.29.327735 +0000,
1,0,1,0,0,0,0,0,18,0,18,0,54.62891390000004,,,,,,,,,,,,,,,,,,,,,,,,,,,54.614331600000696,54.614954300000136,54.61498290000054,54.62891390000004,54.843590000000404,54.81356120000055,54.81359530000009,54.843590000000404,54.843590000000404,54.843590000000404,54.843590000000404,54.94575740000073,n,0.0913418999998612,None,54.946679399999994,54.94724210000004,54.94727150000017,54.96106409999993,55.1950424000006,55.19507010000052,control,1,earth,S.bmp,air,C.bmp,sky,T.bmp,18,mismatch,earth,C.bmp,n,0.0913418999998612,1,55.19580060000044,55.210945300000276,,,,,,,,,,,457903,001,2023-12-06_22h34.22.861,ala-gemma-3-pairs,2023.2.3,60.42237658143039,2023-12-06 22h34.29.327735 +0000,
1,0,1,0,0,0,0,0,19,0,19,0,55.210945300000276,,,,,,,,,,,,,,,,,,,,,,,,,,,55.196606900000006,55.197208700000374,55.19723800000065,55.210945300000276,55.4263576000003,55.39693549999993,55.39698470000076,55.4263576000003,55.4263576000003,55.4263576000003,55.4263576000003,55.544376900000316,n,0.10674280000057479,None,55.545138500000576,55.545638300000064,55.54566270000032,55.55981479999991,55.7963163000004,55.79636460000074,control,1,earth,S.bmp,air,C.bmp,sky,T.bmp,19,mismatch,sky,C.bmp,n,0.10674280000057479,1,55.79754170000069,55.81116760000077,,,,,,,,,,,457903,001,2023-12-06_22h34.22.861,ala-gemma-3-pairs,2023.2.3,60.42237658143039,2023-12-06 22h34.29.327735 +0000,
1,0,1,0,0,0,0,0,20,0,20,0,55.81116760000077,,,,,,,,,,,,,,,,,,,,,,,,,,,55.79889540000022,55.80000090000067,55.800061100000676,55.81116760000077,,56.011311000000205,56.011350499999935,56.04235460000018,56.04235460000018,56.04235460000018,56.04235460000018,56.07966329999999,n,0.023106500000722008,None,56.081108600000334,56.08214240000052,56.08218880000004,56.093965500000195,56.343713500000376,56.34375340000042,control,1,earth,S.bmp,air,C.bmp,sky,T.bmp,20,mismatch,sky,S.bmp,n,0.023106500000722008,1,56.34510240000054,,,,,,,,,,,,457903,001,2023-12-06_22h34.22.861,ala-gemma-3-pairs,2023.2.3,60.42237658143039,2023-12-06 22h34.29.327735 +0000,
1,0,1,0,0,0,0,0,21,0,21,0,56.36074350000035,,,,,,,,,,,,,,,,,,,,,,,,,,,56.346468200000345,56.34758220000003,56.347634100000505,56.36074350000035,,56.56048749999991,56.56054120000044,56.59180910000032,56.59180910000032,56.59180910000032,56.59180910000032,56.676146300000255,n,0.0696365000003425,None,56.67691660000037,56.67742420000013,56.677448299999924,56.69155630000023,56.926289400000314,56.92633520000072,control,1,earth,S.bmp,air,C.bmp,sky,T.bmp,21,match1,earth,S.bmp,n,0.0696365000003425,0,56.92719290000059,56.942242300000544,,,,,,,,,,,457903,001,2023-12-06_22h34.22.861,ala-gemma-3-pairs,2023.2.3,60.42237658143039,2023-12-06 22h34.29.327735 +0000,
1,0,1,0,0,0,0,0,22,0,22,0,56.942242300000544,,,,,,,,,,,,,,,,,,,,,,,,,,,56.92817300000024,56.92893090000052,56.92896720000044,56.942242300000544,57.14192960000037,57.12655620000078,57.12658620000002,57.14192960000037,57.14192960000037,57.14192960000037,57.14192960000037,57.176154900000256,n,0.018787399999382615,None,57.17690810000022,57.17740070000036,57.177424900000005,57.190994700000374,57.42501210000046,57.42503889999989,control,1,earth,S.bmp,air,C.bmp,sky,T.bmp,22,mismatch,earth,C.bmp,n,0.018787399999382615,1,57.42565400000058,57.4413854000004,,,,,,,,,,,457903,001,2023-12-06_22h34.22.861,ala-gemma-3-pairs,2023.2.3,60.42237658143039,2023-12-06 22h34.29.327735 +0000,
1,0,1,0,0,0,0,0,23,0,23,0,57.4413854000004,,,,,,,,,,,,,,,,,,,,,,,,,,,57.426393499999904,57.427584099999876,57.42761120000068,57.4413854000004,57.65670170000067,57.62594590000026,57.625977700000476,57.65670170000067,57.65670170000067,57.65670170000067,57.65670170000067,57.759826299999986,n,0.08669190000000526,None,57.76082680000036,57.761410800000704,57.76144300000033,57.77392620000046,58.010961700000735,58.01100740000038,control,1,earth,S.bmp,air,C.bmp,sky,T.bmp,23,mismatch,air,S.bmp,n,0.08669190000000526,1,58.012218900000335,58.03976480000074,,,,,,,,,,,457903,001,2023-12-06_22h34.22.861,ala-gemma-3-pairs,2023.2.3,60.42237658143039,2023-12-06 22h34.29.327735 +0000,
1,0,1,0,0,0,0,0,24,0,24,0,58.03976480000074,,,,,,,,,,,,,,,,,,,,,,,,,,,58.01363190000029,58.0147321000004,58.01478399999996,58.03976480000074,,58.22389629999998,58.223918500000764,58.240244200000234,58.240244200000234,58.240244200000234,58.240244200000234,58.34080760000052,n,0.09908910000012838,None,58.34137140000075,58.3417214000001,58.341738900000564,58.3560935000005,58.59167030000026,58.59172320000016,control,1,earth,S.bmp,air,C.bmp,sky,T.bmp,24,match1,earth,S.bmp,n,0.09908910000012838,0,58.5927999000005,58.60799810000026,,,,,,,,,,,457903,001,2023-12-06_22h34.22.861,ala-gemma-3-pairs,2023.2.3,60.42237658143039,2023-12-06 22h34.29.327735 +0000,
1,0,1,0,0,0,0,0,25,0,25,0,58.60799810000026,,,,,,,,,,,,,,,,,,,,,,,,,,,58.593998600000305,58.59492540000065,58.59497210000063,58.60799810000026,,58.80630689999998,58.80634379999992,58.822653600000194,58.822653600000194,58.822653600000194,58.822653600000194,58.889594500000385,n,0.05885630000011588,None,58.89019900000039,58.890572400000565,58.89059100000031,58.905351400000654,59.140457000000424,59.14049430000068,control,1,earth,S.bmp,air,C.bmp,sky,T.bmp,25,match2,air,C.bmp,n,0.05885630000011588,0,59.14146359999995,59.15517369999998,,,,,,,,,,,457903,001,2023-12-06_22h34.22.861,ala-gemma-3-pairs,2023.2.3,60.42237658143039,2023-12-06 22h34.29.327735 +0000,
1,0,1,0,0,0,0,0,26,0,26,0,59.15517369999998,,,,,,,,,,,,,,,,,,,,,,,,,,,59.14253370000006,59.14338570000018,59.1434261000004,59.15517369999998,59.37140850000014,59.3401702000001,59.340206100000614,59.37140850000014,59.37140850000014,59.37140850000014,59.37140850000014,59.43982740000047,n,0.05717649999951391,None,59.4406742000001,59.44125090000034,59.44127850000041,59.45497820000037,59.690008900000066,59.690049499999986,control,1,earth,S.bmp,air,C.bmp,sky,T.bmp,26,match3,sky,T.bmp,n,0.05717649999951391,0,59.69098209999993,59.705470900000364,,,,,,,,,,,457903,001,2023-12-06_22h34.22.861,ala-gemma-3-pairs,2023.2.3,60.42237658143039,2023-12-06 22h34.29.327735 +0000,
1,0,1,0,0,0,0,0,27,0,27,0,59.705470900000364,,,,,,,,,,,,,,,,,,,,,,,,,,,59.69208500000059,59.69298340000023,59.69302490000064,59.705470900000364,59.90470230000028,59.88904110000021,59.8890736000003,59.90470230000028,59.90470230000028,59.90470230000028,59.90470230000028,59.95496900000035,m,0.045954100000017206,None,59.955619500000466,59.95611780000036,59.95613839999987,59.97084610000002,60.20458740000049,60.2046119000006,control,1,earth,S.bmp,air,C.bmp,sky,T.bmp,27,match3,sky,T.bmp,m,0.045954100000017206,1,60.20514610000009,60.22050459999991,,,,,,,,,,,457903,001,2023-12-06_22h34.22.861,ala-gemma-3-pairs,2023.2.3,60.42237658143039,2023-12-06 22h34.29.327735 +0000,
1,0,1,0,0,0,0,0,28,0,28,0,60.22050459999991,,,,,,,,,,,,,,,,,,,,,,,,,,,60.20583760000045,60.20634320000045,60.206368800000746,60.22050459999991,60.420244700000694,60.404599400000734,60.40462480000042,60.420244700000694,60.420244700000694,60.420244700000694,60.420244700000694,60.504353600000286,m,0.0682875000002241,None,60.50506750000022,60.50552620000053,60.505548900000576,60.5200190000005,60.7546196000003,60.754647900000236,control,1,earth,S.bmp,air,C.bmp,sky,T.bmp,28,match2,air,C.bmp,m,0.0682875000002241,1,60.75531070000034,60.76992320000045,,,,,,,,,,,457903,001,2023-12-06_22h34.22.861,ala-gemma-3-pairs,2023.2.3,60.42237658143039,2023-12-06 22h34.29.327735 +0000,
1,0,1,0,0,0,0,0,29,0,29,0,60.76992320000045,,,,,,,,,,,,,,,,,,,,,,,,,,,60.75610660000075,60.75672440000017,60.75675390000015,60.76992320000045,60.969500200000766,60.954492600000776,60.95452360000036,60.969500200000766,60.969500200000766,60.969500200000766,60.969500200000766,61.08730460000061,m,0.11263699999926757,None,61.08804020000025,61.088498099999924,61.088520600000265,61.10249830000066,61.338827200000196,61.338865600000645,control,1,earth,S.bmp,air,C.bmp,sky,T.bmp,29,match1,earth,S.bmp,m,0.11263699999926757,1,61.33974940000007,61.353650500000185,,,,,,,,,,,457903,001,2023-12-06_22h34.22.861,ala-gemma-3-pairs,2023.2.3,60.42237658143039,2023-12-06 22h34.29.327735 +0000,
1,0,1,0,1,0,1,0,0,0,0,0,62.13620590000028,,,,,,,,,,,,,,,,,,,,,,,62.12264690000029,62.12341450000076,62.12345240000013,62.12423560000025,62.12576540000009,62.126590800000486,62.1266411000006,62.13620590000028,62.351350700000694,62.320902899999965,62.320948300000055,62.351350700000694,62.351350700000694,62.351350700000694,62.351350700000694,62.35533310000028,n,0.001239299999724608,None,62.35724120000032,62.35795159999998,62.357986100000744,62.38406400000076,62.61898740000015,62.619022300000324,control,2,earth,S.bmp,air,C.bmp,sky,T.bmp,0,match2,air,C.bmp,n,0.001239299999724608,0,62.620152400000734,,61.34000860000015,61.353650500000185,61.353650500000185,62.12102279999999,space,0.759158099999695,None,,,,457903,001,2023-12-06_22h34.22.861,ala-gemma-3-pairs,2023.2.3,60.42237658143039,2023-12-06 22h34.29.327735 +0000,
1,0,1,0,1,0,1,0,1,0,1,0,62.63547340000059,,,,,,,,,,,,,,,,,,,,,,,,,,,62.621416599999975,62.62237920000007,62.62242630000037,62.63547340000059,,62.83455360000062,62.834579600000325,62.8664088000005,62.8664088000005,62.8664088000005,62.8664088000005,62.985836600000766,n,0.11592259999997623,None,62.986821400000736,62.98744440000064,62.987488400000075,63.00041930000043,63.234065999999984,63.23408970000037,control,2,earth,S.bmp,air,C.bmp,sky,T.bmp,1,mismatch,earth,C.bmp,n,0.11592259999997623,1,63.23463150000043,63.25011230000018,,,,,,,,,,,457903,001,2023-12-06_22h34.22.861,ala-gemma-3-pairs,2023.2.3,60.42237658143039,2023-12-06 22h34.29.327735 +0000,
1,0,1,0,1,0,1,0,2,0,2,0,63.25011230000018,,,,,,,,,,,,,,,,,,,,,,,,,,,63.23529400000007,63.23580889999994,63.235832700000174,63.25011230000018,63.45016889999988,63.434531300000344,63.4345643000006,63.45016889999988,63.45016889999988,63.45016889999988,63.45016889999988,63.48351610000009,m,0.030508499999996275,None,63.48406109999996,63.48437869999998,63.484392400000615,63.49918830000024,63.733696500000406,63.733725800000684,control,2,earth,S.bmp,air,C.bmp,sky,T.bmp,2,mismatch,earth,C.bmp,m,0.030508499999996275,0,63.73441679999996,63.74983920000068,,,,,,,,,,,457903,001,2023-12-06_22h34.22.861,ala-gemma-3-pairs,2023.2.3,60.42237658143039,2023-12-06 22h34.29.327735 +0000,
1,0,1,0,1,0,1,0,3,0,3,0,63.74983920000068,,,,,,,,,,,,,,,,,,,,,,,,,,,63.735236800000166,63.73587250000037,63.73590360000071,63.74983920000068,63.949270900000556,63.93351540000003,63.933548100000735,63.949270900000556,63.949270900000556,63.949270900000556,63.949270900000556,64.03350630000023,m,0.06748479999987467,None,64.03428750000057,64.03475220000018,64.03477470000053,64.04879570000048,64.2839042000005,64.28394310000022,control,2,earth,S.bmp,air,C.bmp,sky,T.bmp,3,mismatch,air,T.bmp,m,0.06748479999987467,0,64.28487150000001,64.29957470000045,,,,,,,,,,,457903,001,2023-12-06_22h34.22.861,ala-gemma-3-pairs,2023.2.3,60.42237658143039,2023-12-06 22h34.29.327735 +0000,
1,0,1,0,1,0,1,0,4,0,4,0,64.29957470000045,,,,,,,,,,,,,,,,,,,,,,,,,,,64.28595800000039,64.2868212000003,64.28686240000025,64.29957470000045,,64.49833209999997,64.4983527000004,64.5153519000005,64.5153519000005,64.5153519000005,64.5153519000005,64.58288720000019,m,0.05407240000022284,None,64.58370270000069,64.5842188000006,64.58424470000045,64.59798050000063,64.83325030000015,64.83328340000025,control,2,earth,S.bmp,air,C.bmp,sky,T.bmp,4,mismatch,sky,C.bmp,m,0.05407240000022284,0,64.8340146999999,64.84864939999989,,,,,,,,,,,457903,001,2023-12-06_22h34.22.861,ala-gemma-3-pairs,2023.2.3,60.42237658143039,2023-12-06 22h34.29.327735 +0000,
1,0,1,0,1,0,1,0,5,0,5,0,64.84864939999989,,,,,,,,,,,,,,,,,,,,,,,,,,,64.83493559999988,64.83558810000068,64.83562250000068,64.84864939999989,65.04750220000005,65.03237369999988,65.03240069999993,65.04750220000005,65.04750220000005,65.04750220000005,65.04750220000005,65.16681750000043,n,0.11653120000028139,None,65.16781100000026,65.16845470000044,65.16849880000063,65.18124239999997,65.41540179999993,65.41543550000006,control,2,earth,S.bmp,air,C.bmp,sky,T.bmp,5,mismatch,earth,T.bmp,n,0.11653120000028139,1,65.41626280000037,65.43113360000007,,,,,,,,,,,457903,001,2023-12-06_22h34.22.861,ala-gemma-3-pairs,2023.2.3,60.42237658143039,2023-12-06 22h34.29.327735 +0000,
1,0,1,0,1,0,1,0,6,0,6,0,65.43113360000007,,,,,,,,,,,,,,,,,,,,,,,,,,,65.4173010000004,65.41813100000036,65.41816860000017,65.43113360000007,65.64644100000078,65.6171119999999,65.61717430000044,65.64644100000078,65.64644100000078,65.64644100000078,65.64644100000078,65.73162339999999,m,0.07741239999995742,None,65.73238110000057,65.73294549999991,65.7329694,65.7470213000006,65.98098280000067,65.98101690000021,control,2,earth,S.bmp,air,C.bmp,sky,T.bmp,6,mismatch,air,T.bmp,m,0.07741239999995742,0,65.98216620000039,65.99726120000014,,,,,,,,,,,457903,001,2023-12-06_22h34.22.861,ala-gemma-3-pairs,2023.2.3,60.42237658143039,2023-12-06 22h34.29.327735 +0000,
1,0,1,0,1,0,1,0,7,0,7,0,65.99726120000014,,,,,,,,,,,,,,,,,,,,,,,,,,,65.98291810000046,65.98368410000057,65.98371100000077,65.99726120000014,,66.19583770000008,66.19585610000013,66.21271940000042,66.21271940000042,66.21271940000042,66.21271940000042,66.29731010000069,m,0.0693236999995861,None,66.29812780000066,66.2986346000007,66.29866020000009,66.31232870000076,66.54644740000003,66.5464750000001,control,2,earth,S.bmp,air,C.bmp,sky,T.bmp,7,mismatch,air,T.bmp,m,0.0693236999995861,0,66.54717590000018,66.56278120000025,,,,,,,,,,,457903,001,2023-12-06_22h34.22.861,ala-gemma-3-pairs,2023.2.3,60.42237658143039,2023-12-06 22h34.29.327735 +0000,
1,0,1,0,1,0,1,0,8,0,8,0,66.56278120000025,,,,,,,,,,,,,,,,,,,,,,,,,,,66.54795110000032,66.54852800000026,66.54855709999993,66.56278120000025,66.77843830000074,66.74901990000035,66.74906800000008,66.77843830000074,66.77843830000074,66.77843830000074,66.77843830000074,66.8797996000003,n,0.09551730000021053,None,66.88044150000042,66.88087890000043,66.88090069999998,66.89443180000035,67.12975860000006,67.12979130000076,control,2,earth,S.bmp,air,C.bmp,sky,T.bmp,8,match1,earth,S.bmp,n,0.09551730000021053,0,67.13058750000073,67.14456500000051,,,,,,,,,,,457903,001,2023-12-06_22h34.22.861,ala-gemma-3-pairs,2023.2.3,60.42237658143039,2023-12-06 22h34.29.327735 +0000,
1,0,1,0,1,0,1,0,9,0,9,0,67.14456500000051,,,,,,,,,,,,,,,,,,,,,,,,,,,67.13149260000046,67.13220450000063,67.13223760000074,67.14456500000051,67.34476180000001,67.3295031000007,67.32953700000053,67.34476180000001,67.34476180000001,67.34476180000001,67.34476180000001,67.46313630000077,n,0.10373970000000554,None,67.46406480000041,67.46465220000027,67.46468150000055,67.47742930000004,67.71465890000036,67.71471380000003,control,2,earth,S.bmp,air,C.bmp,sky,T.bmp,9,mismatch,sky,C.bmp,n,0.10373970000000554,1,67.71595330000036,67.72871160000068,,,,,,,,,,,457903,001,2023-12-06_22h34.22.861,ala-gemma-3-pairs,2023.2.3,60.42237658143039,2023-12-06 22h34.29.327735 +0000,
1,0,1,0,1,0,1,0,10,0,10,0,67.72871160000068,,,,,,,,,,,,,,,,,,,,,,,,,,,67.7173345000001,67.71855080000023,67.71860330000072,67.72871160000068,,67.92803300000014,67.92806160000055,67.9454964000006,67.9454964000006,67.9454964000006,67.9454964000006,68.07929950000016,n,0.12415020000025834,None,68.08044070000051,68.08116470000004,68.08120719999988,68.1097163000004,68.34340880000036,68.3434285000003,control,2,earth,S.bmp,air,C.bmp,sky,T.bmp,10,match3,sky,T.bmp,n,0.12415020000025834,0,68.34419450000041,,,,,,,,,,,,457903,001,2023-12-06_22h34.22.861,ala-gemma-3-pairs,2023.2.3,60.42237658143039,2023-12-06 22h34.29.327735 +0000,
1,0,1,0,1,0,1,0,11,0,11,0,68.36012879999998,,,,,,,,,,,,,,,,,,,,,,,,,,,68.34490030000052,68.34551340000053,68.34554590000062,68.36012879999998,68.55929930000002,68.54489430000012,68.54493340000045,68.55929930000002,68.55929930000002,68.55929930000002,68.55929930000002,68.71158680000008,n,0.1367933000001358,None,68.71264250000058,68.71333409999988,68.71336920000067,68.72641640000074,68.96179890000076,68.96183330000076,control,2,earth,S.bmp,air,C.bmp,sky,T.bmp,11,match2,air,C.bmp,n,0.1367933000001358,0,68.96266330000071,68.97643650000009,,,,,,,,,,,457903,001,2023-12-06_22h34.22.861,ala-gemma-3-pairs,2023.2.3,60.42237658143039,2023-12-06 22h34.29.327735 +0000,
1,0,1,0,1,0,1,0,12,0,12,0,68.97643650000009,,,,,,,,,,,,,,,,,,,,,,,,,,,68.96364730000005,68.96444320000046,68.96448349999991,68.97643650000009,69.19240020000052,69.16034510000009,69.16037720000077,69.19240020000052,69.19240020000052,69.19240020000052,69.19240020000052,69.21125389999997,n,0.005543299999771989,None,69.21207910000066,69.21261570000024,69.21264650000012,69.22549080000044,69.46077330000026,69.46080830000028,control,2,earth,S.bmp,air,C.bmp,sky,T.bmp,12,mismatch,earth,T.bmp,n,0.005543299999771989,1,69.4616128000007,69.47557170000073,,,,,,,,,,,457903,001,2023-12-06_22h34.22.861,ala-gemma-3-pairs,2023.2.3,60.42237658143039,2023-12-06 22h34.29.327735 +0000,
1,0,1,0,1,0,1,0,13,0,13,0,69.47557170000073,,,,,,,,,,,,,,,,,,,,,,,,,,,69.4626017999999,69.4633515000005,69.46338850000029,69.47557170000073,69.69140030000017,69.66076740000062,69.66081050000048,69.69140030000017,69.69140030000017,69.69140030000017,69.69140030000017,69.77569990000029,m,0.069442899999558,None,69.77641310000035,69.77687550000064,69.77689809999993,69.7910393000002,70.02770469999996,70.02774920000047,control,2,earth,S.bmp,air,C.bmp,sky,T.bmp,13,mismatch,air,T.bmp,m,0.069442899999558,0,70.02931810000064,,,,,,,,,,,,457903,001,2023-12-06_22h34.22.861,ala-gemma-3-pairs,2023.2.3,60.42237658143039,2023-12-06 22h34.29.327735 +0000,
1,0,1,0,1,0,1,0,14,0,14,0,70.04156280000007,,,,,,,,,,,,,,,,,,,,,,,,,,,70.0309358000004,70.03192829999989,70.03196670000034,70.04156280000007,70.24129290000019,70.22502760000043,70.22505790000014,70.24129290000019,70.24129290000019,70.24129290000019,70.24129290000019,70.40794780000033,m,0.15770699999939097,None,70.40863369999988,70.40904589999991,70.40906720000021,70.42394530000001,70.65962240000044,70.65965580000011,control,2,earth,S.bmp,air,C.bmp,sky,T.bmp,14,match2,air,C.bmp,m,0.15770699999939097,1,70.66044140000031,70.67362959999991,,,,,,,,,,,457903,001,2023-12-06_22h34.22.861,ala-gemma-3-pairs,2023.2.3,60.42237658143039,2023-12-06 22h34.29.327735 +0000,
1,0,1,0,1,0,1,0,15,0,15,0,70.67362959999991,,,,,,,,,,,,,,,,,,,,,,,,,,,70.66137570000046,70.66208189999998,70.66211640000074,70.67362959999991,70.87348650000058,70.85740200000055,70.8574234000007,70.87348650000058,70.87348650000058,70.87348650000058,70.87348650000058,71.042058,m,0.16223819999959233,None,71.04314049999994,71.04393880000043,71.04397380000046,71.05717880000066,71.30649200000062,71.30651149999994,control,2,earth,S.bmp,air,C.bmp,sky,T.bmp,15,match3,sky,T.bmp,m,0.16223819999959233,1,71.3072845000006,,,,,,,,,,,,457903,001,2023-12-06_22h34.22.861,ala-gemma-3-pairs,2023.2.3,60.42237658143039,2023-12-06 22h34.29.327735 +0000,
1,0,1,0,1,0,1,0,16,0,16,0,71.32251840000026,,,,,,,,,,,,,,,,,,,,,,,,,,,71.30797530000018,71.30851690000054,71.30854270000054,71.32251840000026,71.52266120000058,71.50690560000021,71.50693500000034,71.52266120000058,71.52266120000058,71.52266120000058,71.52266120000058,71.67369850000068,m,0.13476189999983035,None,71.67452690000027,71.67503360000046,71.67505920000076,71.68845770000007,71.92233120000037,71.92235510000046,control,2,earth,S.bmp,air,C.bmp,sky,T.bmp,16,match1,earth,S.bmp,m,0.13476189999983035,1,71.92294459999994,71.9387641000003,,,,,,,,,,,457903,001,2023-12-06_22h34.22.861,ala-gemma-3-pairs,2023.2.3,60.42237658143039,2023-12-06 22h34.29.327735 +0000,
1,0,1,0,1,0,1,0,17,0,17,0,71.9387641000003,,,,,,,,,,,,,,,,,,,,,,,,,,,71.92366350000066,71.92421530000047,71.92424120000032,71.9387641000003,72.13824260000001,72.12336510000023,72.12339610000072,72.13824260000001,72.13824260000001,72.13824260000001,72.13824260000001,72.33870840000054,m,0.19586470000012923,None,72.3392530000001,72.33958860000075,72.33960550000029,72.35414089999995,72.58940910000001,72.5894446000002,control,2,earth,S.bmp,air,C.bmp,sky,T.bmp,17,match2,air,C.bmp,m,0.19586470000012923,1,72.59024660000068,72.60510160000013,,,,,,,,,,,457903,001,2023-12-06_22h34.22.861,ala-gemma-3-pairs,2023.2.3,60.42237658143039,2023-12-06 22h34.29.327735 +0000,
1,0,1,0,1,0,1,0,18,0,18,0,72.60510160000013,,,,,,,,,,,,,,,,,,,,,,,,,,,72.59123070000078,72.59196610000072,72.59200839999994,72.60510160000013,72.82053750000068,72.78884580000067,72.78888020000068,72.82053750000068,72.82053750000068,72.82053750000068,72.82053750000068,72.95517000000018,m,0.1281062000007296,None,72.95596310000019,72.95648540000002,72.95651080000061,72.97035250000044,73.2052248,73.20525679999992,control,2,earth,S.bmp,air,C.bmp,sky,T.bmp,18,match1,earth,S.bmp,m,0.1281062000007296,1,73.20602110000073,73.22111769999992,,,,,,,,,,,457903,001,2023-12-06_22h34.22.861,ala-gemma-3-pairs,2023.2.3,60.42237658143039,2023-12-06 22h34.29.327735 +0000,
1,0,1,0,1,0,1,0,19,0,19,0,73.22111769999992,,,,,,,,,,,,,,,,,,,,,,,,,,,73.20691290000013,73.20760940000036,73.20764360000067,73.22111769999992,73.43609430000015,73.40637610000067,73.40641270000015,73.43609430000015,73.43609430000015,73.43609430000015,73.43609430000015,73.55376250000063,m,0.11608090000027005,None,73.55434930000047,73.5546989000004,73.55471680000028,73.56936000000042,73.80483129999993,73.80486689999998,control,2,earth,S.bmp,air,C.bmp,sky,T.bmp,19,match3,sky,T.bmp,m,0.11608090000027005,1,73.80560719999994,73.82101540000076,,,,,,,,,,,457903,001,2023-12-06_22h34.22.861,ala-gemma-3-pairs,2023.2.3,60.42237658143039,2023-12-06 22h34.29.327735 +0000,
1,0,1,0,1,0,1,0,20,0,20,0,73.82101540000076,,,,,,,,,,,,,,,,,,,,,,,,,,,73.80664190000061,73.80743020000045,73.80746799999997,73.82101540000076,,74.01940720000039,74.01943200000005,74.03593880000062,74.03593880000062,74.03593880000062,74.03593880000062,74.13750210000035,m,0.09985059999962687,None,74.13835330000074,74.13892029999988,74.1389478000001,74.15305900000021,74.38673760000074,74.38677030000053,control,2,earth,S.bmp,air,C.bmp,sky,T.bmp,20,mismatch,sky,S.bmp,m,0.09985059999962687,0,74.38755579999997,74.40255650000017,,,,,,,,,,,457903,001,2023-12-06_22h34.22.861,ala-gemma-3-pairs,2023.2.3,60.42237658143039,2023-12-06 22h34.29.327735 +0000,
1,0,1,0,1,0,1,0,21,0,21,0,74.40255650000017,,,,,,,,,,,,,,,,,,,,,,,,,,,74.38845960000071,74.38910120000037,74.38913550000052,74.40255650000017,74.61812460000056,74.58807090000028,74.58811870000045,74.61812460000056,74.61812460000056,74.61812460000056,74.61812460000056,74.65314800000033,m,0.02806700000019191,None,74.65364050000062,74.65391790000012,74.65393290000065,74.66787680000016,74.90258260000064,74.90260790000048,control,2,earth,S.bmp,air,C.bmp,sky,T.bmp,21,match1,earth,S.bmp,m,0.02806700000019191,1,74.90320820000034,74.91762170000038,,,,,,,,,,,457903,001,2023-12-06_22h34.22.861,ala-gemma-3-pairs,2023.2.3,60.42237658143039,2023-12-06 22h34.29.327735 +0000,
1,0,1,0,1,0,1,0,22,0,22,0,74.91762170000038,,,,,,,,,,,,,,,,,,,,,,,,,,,74.90390939999997,74.90460330000042,74.90463060000002,74.91762170000038,75.13445240000055,75.10368540000036,75.1037279000002,75.13445240000055,75.13445240000055,75.13445240000055,75.13445240000055,75.23583090000011,m,0.09801020000031713,None,75.23653120000017,75.23695670000052,75.23697820000052,75.25092940000013,75.48553170000014,75.4855619,control,2,earth,S.bmp,air,C.bmp,sky,T.bmp,22,mismatch,sky,S.bmp,m,0.09801020000031713,0,75.48629260000052,75.50052980000055,,,,,,,,,,,457903,001,2023-12-06_22h34.22.861,ala-gemma-3-pairs,2023.2.3,60.42237658143039,2023-12-06 22h34.29.327735 +0000,
1,0,1,0,1,0,1,0,23,0,23,0,75.50052980000055,,,,,,,,,,,,,,,,,,,,,,,,,,,75.48717380000016,75.48781940000026,75.48785140000018,75.50052980000055,75.70016260000011,75.6845757000001,75.68460110000069,75.70016260000011,75.70016260000011,75.70016260000011,75.70016260000011,75.86824650000017,m,0.1558218999998644,None,75.86896840000009,75.8693972000001,75.86941879999995,75.8834437000005,76.11787520000053,76.11791260000064,control,2,earth,S.bmp,air,C.bmp,sky,T.bmp,23,match3,sky,T.bmp,m,0.1558218999998644,1,76.11881750000066,76.13368910000008,,,,,,,,,,,457903,001,2023-12-06_22h34.22.861,ala-gemma-3-pairs,2023.2.3,60.42237658143039,2023-12-06 22h34.29.327735 +0000,
1,0,1,0,1,0,1,0,24,0,24,0,76.13368910000008,,,,,,,,,,,,,,,,,,,,,,,,,,,76.11991829999988,76.12078220000058,76.12082490000012,76.13368910000008,,76.33237319999989,76.33239020000019,76.34892840000066,76.34892840000066,76.34892840000066,76.34892840000066,76.45167280000078,m,0.08710559999963152,None,76.45284380000066,76.45361980000052,76.45365910000055,76.48202310000033,76.71595180000077,76.71597440000005,control,2,earth,S.bmp,air,C.bmp,sky,T.bmp,24,mismatch,earth,T.bmp,m,0.08710559999963152,0,76.71680410000045,,,,,,,,,,,,457903,001,2023-12-06_22h34.22.861,ala-gemma-3-pairs,2023.2.3,60.42237658143039,2023-12-06 22h34.29.327735 +0000,
1,0,1,0,1,0,1,0,25,0,25,0,76.73209360000055,,,,,,,,,,,,,,,,,,,,,,,,,,,76.71753160000026,76.71817790000023,76.71820500000013,76.73209360000055,76.94880510000075,76.91721870000038,76.91725200000019,76.94880510000075,76.94880510000075,76.94880510000075,76.94880510000075,77.08422990000054,m,0.11979460000020481,None,77.08532780000041,77.08600490000026,77.08603900000071,77.09869490000074,77.33270979999998,77.33273820000068,control,2,earth,S.bmp,air,C.bmp,sky,T.bmp,25,match3,sky,T.bmp,m,0.11979460000020481,1,77.3333859000004,77.34857480000028,,,,,,,,,,,457903,001,2023-12-06_22h34.22.861,ala-gemma-3-pairs,2023.2.3,60.42237658143039,2023-12-06 22h34.29.327735 +0000,
1,0,1,0,1,0,1,0,26,0,26,0,77.34857480000028,,,,,,,,,,,,,,,,,,,,,,,,,,,77.33415280000008,77.33472000000074,77.33474879999994,77.34857480000028,77.54850200000055,77.53296030000001,77.53298960000029,77.54850200000055,77.54850200000055,77.54850200000055,77.54850200000055,77.59910910000053,n,0.03662460000032297,None,77.59985440000037,77.60034180000002,77.60036600000058,77.61416700000063,77.8494584,77.84949200000028,control,2,earth,S.bmp,air,C.bmp,sky,T.bmp,26,mismatch,sky,C.bmp,n,0.03662460000032297,1,77.85026020000078,77.86444560000018,,,,,,,,,,,457903,001,2023-12-06_22h34.22.861,ala-gemma-3-pairs,2023.2.3,60.42237658143039,2023-12-06 22h34.29.327735 +0000,
1,0,1,0,1,0,1,0,27,0,27,0,77.86444560000018,,,,,,,,,,,,,,,,,,,,,,,,,,,77.85119910000049,77.85197550000066,77.85201010000037,77.86444560000018,78.07998700000007,78.05098700000053,78.05103510000026,78.07998700000007,78.07998700000007,78.07998700000007,78.07998700000007,78.18186700000024,n,0.0952342000000499,None,78.18258140000034,78.18304510000053,78.18306759999996,78.1970781,78.43141480000031,78.43146160000015,control,2,earth,S.bmp,air,C.bmp,sky,T.bmp,27,match2,air,C.bmp,n,0.0952342000000499,0,78.43220380000002,78.4473011,,,,,,,,,,,457903,001,2023-12-06_22h34.22.861,ala-gemma-3-pairs,2023.2.3,60.42237658143039,2023-12-06 22h34.29.327735 +0000,
1,0,1,0,1,0,1,0,28,0,28,0,78.4473011,,,,,,,,,,,,,,,,,,,,,,,,,,,78.43310760000077,78.43379050000021,78.43382540000039,78.4473011,78.64641970000048,78.63113300000077,78.63115650000054,78.64641970000048,78.64641970000048,78.64641970000048,78.64641970000048,78.74730550000004,m,0.09194230000048265,None,78.74799119999989,78.74837860000025,78.74839990000055,78.76252810000005,78.99765730000036,78.99769259999994,control,2,earth,S.bmp,air,C.bmp,sky,T.bmp,28,match1,earth,S.bmp,m,0.09194230000048265,1,78.99851459999991,79.01326320000044,,,,,,,,,,,457903,001,2023-12-06_22h34.22.861,ala-gemma-3-pairs,2023.2.3,60.42237658143039,2023-12-06 22h34.29.327735 +0000,
1,0,1,0,1,0,1,0,29,0,29,0,79.01326320000044,,,,,,,,,,,,,,,,,,,,,,,,,,,78.99951970000075,79.00024699999994,79.00028500000008,79.01326320000044,79.2134885000005,79.19758610000008,79.1976279999999,79.2134885000005,79.2134885000005,79.2134885000005,79.2134885000005,79.32994370000051,m,0.10962310000013531,None,79.33062430000064,79.33104290000028,79.33106410000073,79.34545239999989,79.58050830000047,79.58054440000069,control,2,earth,S.bmp,air,C.bmp,sky,T.bmp,29,mismatch,earth,T.bmp,m,0.10962310000013531,0,79.58139200000005,79.62789730000077,,,,,,,,,,,457903,001,2023-12-06_22h34.22.861,ala-gemma-3-pairs,2023.2.3,60.42237658143039,2023-12-06 22h34.29.327735 +0000,
2,0,2,0,0,0,0,0,0,0,0,0,80.57799840000007,,,,,,79.58264820000022,79.5834261,79.58346170000004,79.62789730000077,79.62789730000077,79.62789730000077,79.62789730000077,79.62789730000077,79.62789730000077,79.62789730000077,79.62789730000077,80.56175200000052,space,0.9171951999996963,None,80.56231410000055,80.56280950000018,80.5637415000001,80.56429410000055,80.56431890000022,80.56488070000069,80.5658684,80.56645470000058,80.56648040000073,80.57799840000007,80.77681850000045,80.7624679999999,80.76250380000056,80.77681850000045,80.77681850000045,80.77681850000045,80.77681850000045,80.81112730000041,n,0.018975500000124157,None,80.81206760000077,80.81249920000027,80.81252029999996,80.82698320000054,81.06149100000039,81.06153390000054,valence,1,neutral,R.bmp,happy,H.bmp,sad,X.bmp,0,mismatch,sad,H.bmp,n,0.018975500000124157,1,81.0623043000005,81.07737080000061,79.58161330000075,,,79.58170860000064,None,,,,,,457903,001,2023-12-06_22h34.22.861,ala-gemma-3-pairs,2023.2.3,60.42237658143039,2023-12-06 22h34.29.327735 +0000,
2,0,2,0,0,0,0,0,1,0,1,0,81.07737080000061,,,,,,,,,,,,,,,,,,,,,,,,,,,81.06318510000074,81.06388250000055,81.06391620000068,81.07737080000061,81.29196610000054,81.26232410000011,81.2623620000004,81.29196610000054,81.29196610000054,81.29196610000054,81.29196610000054,81.32694790000005,n,0.019578399999772955,None,81.32755180000004,81.32793370000036,81.3279519000007,81.34227390000069,81.57742770000004,81.57745950000026,valence,1,neutral,R.bmp,happy,H.bmp,sad,X.bmp,1,match2,happy,H.bmp,n,0.019578399999772955,0,81.57821460000014,81.59267290000025,,,,,,,,,,,457903,001,2023-12-06_22h34.22.861,ala-gemma-3-pairs,2023.2.3,60.42237658143039,2023-12-06 22h34.29.327735 +0000,
2,0,2,0,0,0,0,0,2,0,2,0,81.59267290000025,,,,,,,,,,,,,,,,,,,,,,,,,,,81.57915840000078,81.57984980000037,81.57988380000006,81.59267290000025,81.79306480000014,81.77864130000034,81.77868050000052,81.79306480000014,81.79306480000014,81.79306480000014,81.79306480000014,81.81109760000072,n,0.0025521999996271916,None,81.81203080000068,81.8126968000006,81.81272609999996,81.82560560000002,82.05991770000037,82.05994510000073,valence,1,neutral,R.bmp,happy,H.bmp,sad,X.bmp,2,match2,happy,H.bmp,n,0.0025521999996271916,0,82.06059830000049,82.0751194000004,,,,,,,,,,,457903,001,2023-12-06_22h34.22.861,ala-gemma-3-pairs,2023.2.3,60.42237658143039,2023-12-06 22h34.29.327735 +0000,
2,0,2,0,0,0,0,0,3,0,3,0,82.0751194000004,,,,,,,,,,,,,,,,,,,,,,,,,,,82.0613757000001,82.06197900000006,82.06200780000017,82.0751194000004,82.29080180000074,82.26290969999991,82.26296910000019,82.29080180000074,82.29080180000074,82.29080180000074,82.29080180000074,82.35953700000027,n,0.058829700000387675,None,82.36028800000076,82.3608236,82.36084759999994,82.37496570000076,82.61024200000065,82.61033380000026,valence,1,neutral,R.bmp,happy,H.bmp,sad,X.bmp,3,match3,sad,X.bmp,n,0.058829700000387675,0,82.61123960000077,82.62580090000029,,,,,,,,,,,457903,001,2023-12-06_22h34.22.861,ala-gemma-3-pairs,2023.2.3,60.42237658143039,2023-12-06 22h34.29.327735 +0000,
2,0,2,0,0,0,0,0,4,0,4,0,82.62580090000029,,,,,,,,,,,,,,,,,,,,,,,,,,,82.6123047000001,82.61303580000003,82.6130761000004,82.62580090000029,,82.82496510000055,82.82498880000003,82.85699950000071,82.85699950000071,82.85699950000071,82.85699950000071,82.9589958000006,n,0.08888480000041454,None,82.95974560000013,82.9602115000007,82.96023480000076,82.97367200000008,83.20811700000013,83.2081433000003,valence,1,neutral,R.bmp,happy,H.bmp,sad,X.bmp,4,match1,neutral,R.bmp,n,0.08888480000041454,0,83.20871780000016,83.22360079999999,,,,,,,,,,,457903,001,2023-12-06_22h34.22.861,ala-gemma-3-pairs,2023.2.3,60.42237658143039,2023-12-06 22h34.29.327735 +0000,
2,0,2,0,0,0,0,0,5,0,5,0,83.22360079999999,,,,,,,,,,,,,,,,,,,,,,,,,,,83.20944839999993,83.20999780000056,83.21002560000034,83.22360079999999,83.42369390000022,83.40837350000038,83.40840389999994,83.42369390000022,83.42369390000022,83.42369390000022,83.42369390000022,83.52475959999992,n,0.09579130000020086,None,83.52558200000021,83.52610320000076,83.52612930000032,83.53969610000058,83.77537440000015,83.77540680000038,valence,1,neutral,R.bmp,happy,H.bmp,sad,X.bmp,5,match2,happy,H.bmp,n,0.09579130000020086,0,83.77615530000003,83.78985000000011,,,,,,,,,,,457903,001,2023-12-06_22h34.22.861,ala-gemma-3-pairs,2023.2.3,60.42237658143039,2023-12-06 22h34.29.327735 +0000,
2,0,2,0,0,0,0,0,6,0,6,0,83.78985000000011,,,,,,,,,,,,,,,,,,,,,,,,,,,83.77708620000067,83.7777928000005,83.77782699999989,83.78985000000011,83.9897305000004,83.97343870000077,83.97346970000035,83.9897305000004,83.9897305000004,83.9897305000004,83.9897305000004,84.0253874,n,0.031453200000214565,None,84.02647070000057,84.02715480000006,84.02718950000053,84.03994950000015,84.2893524000001,84.28937310000038,valence,1,neutral,R.bmp,happy,H.bmp,sad,X.bmp,6,match3,sad,X.bmp,n,0.031453200000214565,0,84.29011160000027,,,,,,,,,,,,457903,001,2023-12-06_22h34.22.861,ala-gemma-3-pairs,2023.2.3,60.42237658143039,2023-12-06 22h34.29.327735 +0000,
2,0,2,0,0,0,0,0,7,0,7,0,84.30609400000048,,,,,,,,,,,,,,,,,,,,,,,,,,,84.29089610000028,84.29148880000048,84.29152610000074,84.30609400000048,84.50527659999989,84.49020390000078,84.49023800000032,84.50527659999989,84.50527659999989,84.50527659999989,84.50527659999989,84.57284350000009,n,0.05187900000055379,None,84.57348600000023,84.57389460000013,84.57391520000056,84.58842540000023,84.82375159999992,84.82378490000065,valence,1,neutral,R.bmp,happy,H.bmp,sad,X.bmp,7,mismatch,sad,R.bmp,n,0.05187900000055379,1,84.82457909999994,84.83912099999998,,,,,,,,,,,457903,001,2023-12-06_22h34.22.861,ala-gemma-3-pairs,2023.2.3,60.42237658143039,2023-12-06 22h34.29.327735 +0000,
2,0,2,0,0,0,0,0,8,0,8,0,84.83912099999998,,,,,,,,,,,,,,,,,,,,,,,,,,,84.82549259999996,84.82627980000052,84.82631350000065,84.83912099999998,85.0543174000004,85.02510630000052,85.02515459999995,85.0543174000004,85.0543174000004,85.0543174000004,85.0543174000004,85.20534550000048,m,0.13722989999951096,None,85.20594250000067,85.20632190000015,85.20634030000019,85.22094360000028,85.45549380000011,85.4555220000002,valence,1,neutral,R.bmp,happy,H.bmp,sad,X.bmp,8,mismatch,happy,X.bmp,m,0.13722989999951096,0,85.45624159999988,85.47133720000056,,,,,,,,,,,457903,001,2023-12-06_22h34.22.861,ala-gemma-3-pairs,2023.2.3,60.42237658143039,2023-12-06 22h34.29.327735 +0000,
2,0,2,0,0,0,0,0,9,0,9,0,85.47133720000056,,,,,,,,,,,,,,,,,,,,,,,,,,,85.45710990000043,85.45800430000054,85.45803580000029,85.47133720000056,85.67118550000032,85.65511300000071,85.65514110000004,85.67118550000032,85.67118550000032,85.67118550000032,85.67118550000032,85.83796450000045,n,0.15791259999969043,None,85.83857790000002,85.83902600000056,85.83904560000065,85.85319130000062,86.09051550000004,86.09057490000032,valence,1,neutral,R.bmp,happy,H.bmp,sad,X.bmp,9,mismatch,happy,R.bmp,n,0.15791259999969043,1,86.09190530000069,86.10403200000019,,,,,,,,,,,457903,001,2023-12-06_22h34.22.861,ala-gemma-3-pairs,2023.2.3,60.42237658143039,2023-12-06 22h34.29.327735 +0000,
2,0,2,0,0,0,0,0,10,0,10,0,86.10403200000019,,,,,,,,,,,,,,,,,,,,,,,,,,,86.09339950000049,86.09440470000027,86.09446030000072,86.10403200000019,,86.30291390000002,86.30292920000011,86.3198738000001,86.3198738000001,86.3198738000001,86.3198738000001,86.38952900000004,n,0.05386530000032508,None,86.39070560000073,86.39147140000023,86.39150890000019,86.41999130000022,86.65319369999997,86.65321790000053,valence,1,neutral,R.bmp,happy,H.bmp,sad,X.bmp,10,match3,sad,X.bmp,n,0.05386530000032508,0,86.65404540000054,,,,,,,,,,,,457903,001,2023-12-06_22h34.22.861,ala-gemma-3-pairs,2023.2.3,60.42237658143039,2023-12-06 22h34.29.327735 +0000,
2,0,2,0,0,0,0,0,11,0,11,0,86.66929390000041,,,,,,,,,,,,,,,,,,,,,,,,,,,86.65483680000034,86.65550600000006,86.65553570000066,86.66929390000041,86.8856181000001,86.85550779999994,86.8555580000002,86.8856181000001,86.8856181000001,86.8856181000001,86.8856181000001,86.90389529999993,m,0.0027133000003232155,None,86.90501500000028,86.90583810000044,86.90587310000046,86.9190666000004,87.15290920000007,87.15293569999994,valence,1,neutral,R.bmp,happy,H.bmp,sad,X.bmp,11,mismatch,neutral,X.bmp,m,0.0027133000003232155,0,87.15356300000076,87.16861470000003,,,,,,,,,,,457903,001,2023-12-06_22h34.22.861,ala-gemma-3-pairs,2023.2.3,60.42237658143039,2023-12-06 22h34.29.327735 +0000,
2,0,2,0,0,0,0,0,12,0,12,0,87.16861470000003,,,,,,,,,,,,,,,,,,,,,,,,,,,87.15432240000064,87.15490900000077,87.15493839999999,87.16861470000003,87.36817620000056,87.35251289999997,87.35253290000037,87.36817620000056,87.36817620000056,87.36817620000056,87.36817620000056,87.51906210000016,m,0.13559429999986605,None,87.51982520000001,87.52032710000003,87.52035130000058,87.53466860000026,87.76887979999992,87.76890970000022,valence,1,neutral,R.bmp,happy,H.bmp,sad,X.bmp,12,mismatch,happy,X.bmp,m,0.13559429999986605,0,87.76956830000017,87.7853855000003,,,,,,,,,,,457903,001,2023-12-06_22h34.22.861,ala-gemma-3-pairs,2023.2.3,60.42237658143039,2023-12-06 22h34.29.327735 +0000,
2,0,2,0,0,0,0,0,13,0,13,0,87.7853855000003,,,,,,,,,,,,,,,,,,,,,,,,,,,87.77043490000051,87.7711177000001,87.77116100000057,87.7853855000003,88.00009760000012,87.97044929999993,87.97049850000076,88.00009760000012,88.00009760000012,88.00009760000012,88.00009760000012,88.03592430000026,m,0.019054000000323867,None,88.03682630000003,88.03752050000003,88.0375498000003,88.05078690000028,88.28504160000011,88.28507609999997,valence,1,neutral,R.bmp,happy,H.bmp,sad,X.bmp,13,match1,neutral,R.bmp,m,0.019054000000323867,1,88.28588610000043,88.30050770000071,,,,,,,,,,,457903,001,2023-12-06_22h34.22.861,ala-gemma-3-pairs,2023.2.3,60.42237658143039,2023-12-06 22h34.29.327735 +0000,
2,0,2,0,0,0,0,0,14,0,14,0,88.30050770000071,,,,,,,,,,,,,,,,,,,,,,,,,,,88.2868183999999,88.28758340000059,88.28761900000063,88.30050770000071,88.51684190000014,88.48502890000054,88.48505610000029,88.51684190000014,88.51684190000014,88.51684190000014,88.51684190000014,88.65103780000027,m,0.11894609999944805,None,88.65181060000032,88.65230620000057,88.6523302000005,88.66691840000021,88.9038559999999,88.90394620000006,valence,1,neutral,R.bmp,happy,H.bmp,sad,X.bmp,14,mismatch,happy,R.bmp,m,0.11894609999944805,0,88.90523080000003,88.91780050000034,,,,,,,,,,,457903,001,2023-12-06_22h34.22.861,ala-gemma-3-pairs,2023.2.3,60.42237658143039,2023-12-06 22h34.29.327735 +0000,
2,0,2,0,0,0,0,0,15,0,15,0,88.91780050000034,,,,,,,,,,,,,,,,,,,,,,,,,,,88.90688210000008,88.9081681000007,88.90823040000032,88.91780050000034,,89.11767090000012,89.11770640000032,89.13432830000056,89.13432830000056,89.13432830000056,89.13432830000056,89.21673390000069,m,0.07541200000014214,None,89.21744860000035,89.21791290000056,89.21793590000016,89.23230880000028,89.46779950000018,89.46785550000004,valence,1,neutral,R.bmp,happy,H.bmp,sad,X.bmp,15,mismatch,happy,X.bmp,m,0.07541200000014214,0,89.46923080000033,89.48255080000035,,,,,,,,,,,457903,001,2023-12-06_22h34.22.861,ala-gemma-3-pairs,2023.2.3,60.42237658143039,2023-12-06 22h34.29.327735 +0000,
2,0,2,0,0,0,0,0,16,0,16,0,89.48255080000035,,,,,,,,,,,,,,,,,,,,,,,,,,,89.47028520000003,89.47112560000005,89.4711640000005,89.48255080000035,89.69808640000065,89.66790990000027,89.66794819999996,89.69808640000065,89.69808640000065,89.69808640000065,89.69808640000065,89.81611000000066,m,0.11298580000038783,None,89.81679080000049,89.81722580000041,89.81724699999995,89.83158940000067,90.06689470000038,90.06691970000065,valence,1,neutral,R.bmp,happy,H.bmp,sad,X.bmp,16,mismatch,sad,R.bmp,m,0.11298580000038783,0,90.06749800000034,90.08086240000011,,,,,,,,,,,457903,001,2023-12-06_22h34.22.861,ala-gemma-3-pairs,2023.2.3,60.42237658143039,2023-12-06 22h34.29.327735 +0000,
2,0,2,0,0,0,0,0,17,0,17,0,90.08086240000011,,,,,,,,,,,,,,,,,,,,,,,,,,,90.06821710000077,90.0687656,90.06879290000052,90.08086240000011,90.2973789000007,90.26596210000025,90.26599400000032,90.2973789000007,90.2973789000007,90.2973789000007,90.2973789000007,90.29973750000045,m,0.0007630999998582411,None,90.30056080000031,90.30109170000014,90.30111750000015,90.31467350000003,90.54964440000003,90.54970200000025,valence,1,neutral,R.bmp,happy,H.bmp,sad,X.bmp,17,match2,happy,H.bmp,m,0.0007630999998582411,1,90.55053510000016,90.565114,,,,,,,,,,,457903,001,2023-12-06_22h34.22.861,ala-gemma-3-pairs,2023.2.3,60.42237658143039,2023-12-06 22h34.29.327735 +0000,
2,0,2,0,0,0,0,0,18,0,18,0,90.565114,,,,,,,,,,,,,,,,,,,,,,,,,,,90.55153160000009,90.55240020000019,90.55243770000016,90.565114,,90.76478560000032,90.76481180000064,90.78098670000054,90.78098670000054,90.78098670000054,90.78098670000054,90.96500910000032,m,0.18054100000063045,None,90.96581630000037,90.96634610000001,90.96637200000077,90.98055050000039,91.2150470000006,91.21508130000075,valence,1,neutral,R.bmp,happy,H.bmp,sad,X.bmp,18,mismatch,sad,R.bmp,m,0.18054100000063045,0,91.21589120000044,91.23027129999991,,,,,,,,,,,457903,001,2023-12-06_22h34.22.861,ala-gemma-3-pairs,2023.2.3,60.42237658143039,2023-12-06 22h34.29.327735 +0000,
2,0,2,0,0,0,0,0,19,0,19,0,91.23027129999991,,,,,,,,,,,,,,,,,,,,,,,,,,,91.21688960000029,91.21769200000017,91.21773030000077,91.23027129999991,91.4296288000005,91.41376240000045,91.41380200000003,91.4296288000005,91.4296288000005,91.4296288000005,91.4296288000005,91.59659580000061,n,0.1585601000006136,None,91.59725849999995,91.5976782000007,91.59769910000068,91.61237340000025,91.84823910000068,91.84828580000067,valence,1,neutral,R.bmp,happy,H.bmp,sad,X.bmp,19,mismatch,sad,H.bmp,n,0.1585601000006136,1,91.85001250000005,,,,,,,,,,,,457903,001,2023-12-06_22h34.22.861,ala-gemma-3-pairs,2023.2.3,60.42237658143039,2023-12-06 22h34.29.327735 +0000,
2,0,2,0,0,0,0,0,20,0,20,0,91.8633249000004,,,,,,,,,,,,,,,,,,,,,,,,,,,91.85176180000053,91.85302620000039,91.85308880000048,91.8633249000004,92.07815310000024,92.04753920000076,92.04758140000013,92.07815310000024,92.07815310000024,92.07815310000024,92.07815310000024,92.12932550000005,n,0.03587399999923946,None,92.1299340000005,92.13030590000017,92.13032500000008,92.14493530000072,92.37984090000009,92.37987010000052,valence,1,neutral,R.bmp,happy,H.bmp,sad,X.bmp,20,match1,neutral,R.bmp,n,0.03587399999923946,0,92.38055170000007,92.3951446000001,,,,,,,,,,,457903,001,2023-12-06_22h34.22.861,ala-gemma-3-pairs,2023.2.3,60.42237658143039,2023-12-06 22h34.29.327735 +0000,
2,0,2,0,0,0,0,0,21,0,21,0,92.3951446000001,,,,,,,,,,,,,,,,,,,,,,,,,,,92.38138650000019,92.38198570000077,92.38202180000008,92.3951446000001,92.59519110000019,92.57923310000024,92.57926640000005,92.59519110000019,92.59519110000019,92.59519110000019,92.59519110000019,92.64768439999989,m,0.04648509999969974,None,92.64910400000008,92.65004360000057,92.65009030000056,92.67788250000012,92.91178320000017,92.9118126000003,valence,1,neutral,R.bmp,happy,H.bmp,sad,X.bmp,21,match1,neutral,R.bmp,m,0.04648509999969974,1,92.91276390000075,,,,,,,,,,,,457903,001,2023-12-06_22h34.22.861,ala-gemma-3-pairs,2023.2.3,60.42237658143039,2023-12-06 22h34.29.327735 +0000,
2,0,2,0,0,0,0,0,22,0,22,0,92.92829359999996,,,,,,,,,,,,,,,,,,,,,,,,,,,92.91378330000043,92.91463250000015,92.91467050000028,92.92829359999996,93.14352890000009,93.11453669999992,93.11460500000067,93.14352890000009,93.14352890000009,93.14352890000009,93.14352890000009,93.26158260000011,n,0.10055069999998523,None,93.26229340000009,93.26276099999995,93.26278380000076,93.2772388000003,93.51238030000059,93.51241530000061,valence,1,neutral,R.bmp,happy,H.bmp,sad,X.bmp,22,match3,sad,X.bmp,n,0.10055069999998523,0,93.51325320000069,93.52793999999994,,,,,,,,,,,457903,001,2023-12-06_22h34.22.861,ala-gemma-3-pairs,2023.2.3,60.42237658143039,2023-12-06 22h34.29.327735 +0000,
2,0,2,0,0,0,0,0,23,0,23,0,93.52793999999994,,,,,,,,,,,,,,,,,,,,,,,,,,,93.51427300000068,93.5150121000006,93.51504960000057,93.52793999999994,,93.72702370000025,93.72704920000069,93.74393500000042,93.74393500000042,93.74393500000042,93.74393500000042,93.92834260000018,n,0.17413279999982478,None,93.92925070000001,93.92984330000036,93.92987350000021,93.94356000000062,94.17942470000071,94.17947499999991,valence,1,neutral,R.bmp,happy,H.bmp,sad,X.bmp,23,match2,happy,H.bmp,n,0.17413279999982478,0,94.18064790000062,94.19343590000062,,,,,,,,,,,457903,001,2023-12-06_22h34.22.861,ala-gemma-3-pairs,2023.2.3,60.42237658143039,2023-12-06 22h34.29.327735 +0000,
2,0,2,0,0,0,0,0,24,0,24,0,94.19343590000062,,,,,,,,,,,,,,,,,,,,,,,,,,,94.18203100000028,94.18312460000016,94.18317710000065,94.19343590000062,,94.39217220000046,94.3921891,94.40883530000065,94.40883530000065,94.40883530000065,94.40883530000065,94.44365310000012,n,0.02879880000000412,None,94.44440630000008,94.4448796000006,94.44490250000035,94.45916620000025,94.69269030000032,94.69271310000022,valence,1,neutral,R.bmp,happy,H.bmp,sad,X.bmp,24,mismatch,sad,R.bmp,n,0.02879880000000412,1,94.69322680000005,94.70876730000055,,,,,,,,,,,457903,001,2023-12-06_22h34.22.861,ala-gemma-3-pairs,2023.2.3,60.42237658143039,2023-12-06 22h34.29.327735 +0000,
2,0,2,0,0,0,0,0,25,0,25,0,94.70876730000055,,,,,,,,,,,,,,,,,,,,,,,,,,,94.6938712000001,94.69436780000069,94.69439160000002,94.70876730000055,94.90928870000062,94.89437200000066,94.89441590000024,94.90928870000062,94.90928870000062,94.90928870000062,94.90928870000062,95.01002330000028,n,0.08614570000008825,None,95.01095420000001,95.01153220000015,95.01156230000015,95.02481540000008,95.26024610000059,95.26028430000042,valence,1,neutral,R.bmp,happy,H.bmp,sad,X.bmp,25,match3,sad,X.bmp,n,0.08614570000008825,0,95.26122579999992,95.27498379999997,,,,,,,,,,,457903,001,2023-12-06_22h34.22.861,ala-gemma-3-pairs,2023.2.3,60.42237658143039,2023-12-06 22h34.29.327735 +0000,
