tasks_loop.thisRepN,tasks_loop.thisTrialN,tasks_loop.thisN,tasks_loop.thisIndex,blocks.thisRepN,blocks.thisTrialN,blocks.thisN,blocks.thisIndex,trials.thisRepN,trials.thisTrialN,trials.thisN,trials.thisIndex,thisRow.t,notes,define_tasks.started,define_tasks.stopped,parameters.started,parameters.stopped,select_task_and_match_pairs.started,select_task_and_match_pairs.stopped,show_match_pairs.started,instructions.started,key_resp.started,match1label.started,match2label.started,match3label.started,match1shape.started,match2shape.started,match3shape.started,show_match_pairs.stopped,key_resp.keys,key_resp.rt,key_resp.duration,init_block_count.started,init_block_count.stopped,increment_block_count.started,increment_block_count.stopped,define_trial_list.started,define_trial_list.stopped,decide_what_pair.started,decide_what_pair.stopped,fix.started,fixn.started,fixn.stopped,fix.stopped,show_a_pair.started,text_2.started,put_label.started,put_shape.started,response.started,show_a_pair.stopped,response.keys,response.rt,response.duration,eval.started,eval.stopped,feedback.started,text_4.started,text_4.stopped,feedback.stopped,write.started,task,block_count,match_1_label,match_1_shape,match_2_label,match_2_shape,match_3_label,match_3_shape,trial_index,trial_type,label,shape,response,rt,acc,write.stopped,rest.started,text.started,key_resp_2.started,rest.stopped,key_resp_2.keys,key_resp_2.rt,key_resp_2.duration,the_end.started,text_3.started,the_end.stopped,participant,session,date,expName,psychopyVersion,frameRate,expStart,
0,0,0,0,0,0,0,0,0,0,0,0,2.21199069999966,,0.013623400000142283,0.013978199999655772,0.01399070000024949,0.014197100000274077,0.014712000000145053,0.014871999999741092,0.014880699999594071,0.06824969999979658,0.06824969999979658,0.06824969999979658,0.06824969999979658,0.06824969999979658,0.06824969999979658,0.06824969999979658,0.06824969999979658,2.1980956999996124,space,2.125773699999627,None,2.1987277999996877,2.199137999999948,2.1997897999999623,2.20016779999969,2.2001859000001787,2.200628300000062,2.2013582999998107,2.201734899999792,2.201753800000006,2.21199069999966,2.411608499999602,2.3961749000000054,2.3962062000000515,2.411608499999602,2.411608499999602,2.411608499999602,2.411608499999602,2.7787435999998706,m,0.3576239000003625,None,2.779633400000421,2.780044000000089,2.7800681999997323,2.7941178999999465,3.0461627000004228,3.0303608000003806,3.030433699999776,reward,1,£0,P.bmp,£100,O.bmp,£50,D.bmp,0,match1,£0,P.bmp,m,0.3576239000003625,1,3.0315394999997807,,,,,,,,,,,924528,001,2023-12-06_22h25.27.159,ala-gemma-3-pairs,2023.2.3,59.57806812166584,2023-12-06 22h25.33.130955 +0000,
0,0,0,0,0,0,0,0,1,0,1,0,3.0461627000004228,,,,,,,,,,,,,,,,,,,,,,,,,,,3.0329099999999016,3.033898399999998,3.0339529000002585,3.0461627000004228,,3.2441976999998587,3.2442166000000725,3.2609003999996276,3.2609003999996276,3.2609003999996276,3.2609003999996276,3.461842499999875,n,0.18654370000058407,None,3.462638199999674,3.463165199999821,3.463190399999803,3.4932807000004686,,3.726499700000204,3.726520100000016,reward,1,£0,P.bmp,£100,O.bmp,£50,D.bmp,1,match2,£100,O.bmp,n,0.18654370000058407,0,3.7272349000004397,,,,,,,,,,,924528,001,2023-12-06_22h25.27.159,ala-gemma-3-pairs,2023.2.3,59.57806812166584,2023-12-06 22h25.33.130955 +0000,
0,0,0,0,0,0,0,0,2,0,2,0,3.7429613000003883,,,,,,,,,,,,,,,,,,,,,,,,,,,3.7279230000003736,3.728521600000022,3.7285469999997076,3.7429613000003883,3.9433912000004057,3.9276269000001776,3.9276529999997365,3.9433912000004057,3.9433912000004057,3.9433912000004057,3.9433912000004057,4.061742300000333,m,0.10392630000023928,None,4.062729500000387,4.0634062999997695,4.063437900000281,4.0769438999996055,4.326297999999952,4.310646400000223,4.310673400000269,reward,1,£0,P.bmp,£100,O.bmp,£50,D.bmp,2,mismatch,£0,O.bmp,m,0.10392630000023928,0,4.311236999999892,,,,,,,,,,,924528,001,2023-12-06_22h25.27.159,ala-gemma-3-pairs,2023.2.3,59.57806812166584,2023-12-06 22h25.33.130955 +0000,
0,0,0,0,0,0,0,0,3,0,3,0,4.326297999999952,,,,,,,,,,,,,,,,,,,,,,,,,,,4.311935100000483,4.312454099999741,4.31247970000004,4.326297999999952,4.5263459999996485,4.510280700000294,4.51031090000015,4.5263459999996485,4.5263459999996485,4.5263459999996485,4.5263459999996485,4.726309599999695,n,0.1958481000001484,None,4.726984199999606,4.7274092999996356,4.727438699999766,4.741632100000061,4.993320700000368,4.976508800000374,4.976541600000019,reward,1,£0,P.bmp,£100,O.bmp,£50,D.bmp,3,match3,£50,D.bmp,n,0.1958481000001484,0,4.977343000000474,,,,,,,,,,,924528,001,2023-12-06_22h25.27.159,ala-gemma-3-pairs,2023.2.3,59.57806812166584,2023-12-06 22h25.33.130955 +0000,
0,0,0,0,0,0,0,0,4,0,4,0,4.993320700000368,,,,,,,,,,,,,,,,,,,,,,,,,,,4.978255900000477,4.978901700000279,4.978935899999669,4.993320700000368,,5.191915600000357,5.191939700000148,5.209063000000242,5.209063000000242,5.209063000000242,5.209063000000242,5.309755799999948,n,0.09059780000006867,None,5.310652199999822,5.311549300000479,5.311578599999848,5.325177200000326,5.574989200000346,5.559449000000313,5.559487000000445,reward,1,£0,P.bmp,£100,O.bmp,£50,D.bmp,4,mismatch,£50,O.bmp,n,0.09059780000006867,1,5.560295399999632,,,,,,,,,,,924528,001,2023-12-06_22h25.27.159,ala-gemma-3-pairs,2023.2.3,59.57806812166584,2023-12-06 22h25.33.130955 +0000,
0,0,0,0,0,0,0,0,5,0,5,0,5.574989200000346,,,,,,,,,,,,,,,,,,,,,,,,,,,5.561392200000228,5.5622229999999035,5.562281900000016,5.574989200000346,5.791143299999931,5.7604536999997435,5.760502400000405,5.791143299999931,5.791143299999931,5.791143299999931,5.791143299999931,5.810720299999957,n,0.016977199999928416,None,5.811800499999663,5.812621600000057,5.812656099999913,5.823997899999995,6.073855900000126,6.05870380000033,6.058742299999722,reward,1,£0,P.bmp,£100,O.bmp,£50,D.bmp,5,mismatch,£0,D.bmp,n,0.016977199999928416,1,6.059479399999873,,,,,,,,,,,924528,001,2023-12-06_22h25.27.159,ala-gemma-3-pairs,2023.2.3,59.57806812166584,2023-12-06 22h25.33.130955 +0000,
0,0,0,0,0,0,0,0,6,0,6,0,6.073855900000126,,,,,,,,,,,,,,,,,,,,,,,,,,,6.06045180000001,6.061167099999693,6.0612065000004804,6.073855900000126,6.289418399999704,6.2588345000003756,6.25887160000002,6.289418399999704,6.289418399999704,6.289418399999704,6.289418399999704,6.32428710000022,n,0.029029199999968114,None,6.324951900000087,6.325445700000273,6.325475499999811,6.3396216000001,6.589194099999986,6.574398099999598,6.574430700000448,reward,1,£0,P.bmp,£100,O.bmp,£50,D.bmp,6,match3,£50,D.bmp,n,0.029029199999968114,0,6.5751993000003495,,,,,,,,,,,924528,001,2023-12-06_22h25.27.159,ala-gemma-3-pairs,2023.2.3,59.57806812166584,2023-12-06 22h25.33.130955 +0000,
0,0,0,0,0,0,0,0,7,0,7,0,6.589194099999986,,,,,,,,,,,,,,,,,,,,,,,,,,,6.576127899999847,6.576839800000016,6.576887400000487,6.589194099999986,6.788984900000287,6.773463100000299,6.773483500000111,6.788984900000287,6.788984900000287,6.788984900000287,6.788984900000287,6.972887599999922,n,0.17589769999995042,None,6.973468899999716,6.9738313999996535,6.973849799999698,6.9887165999998615,7.239459800000077,7.223768400000154,7.223803800000496,reward,1,£0,P.bmp,£100,O.bmp,£50,D.bmp,7,match3,£50,D.bmp,n,0.17589769999995042,0,7.22461420000036,,,,,,,,,,,924528,001,2023-12-06_22h25.27.159,ala-gemma-3-pairs,2023.2.3,59.57806812166584,2023-12-06 22h25.33.130955 +0000,
0,0,0,0,0,0,0,0,8,0,8,0,7.239459800000077,,,,,,,,,,,,,,,,,,,,,,,,,,,7.225615000000289,7.2264586999999665,7.226496399999633,7.239459800000077,7.439212899999802,7.4230162000003475,7.423045499999716,7.439212899999802,7.439212899999802,7.439212899999802,7.439212899999802,7.507579199999782,n,0.060130199999548495,None,7.508560299999772,7.509245000000192,7.509276699999646,7.52159440000014,7.771644700000252,7.7569038999999975,7.7569384999997055,reward,1,£0,P.bmp,£100,O.bmp,£50,D.bmp,8,mismatch,£50,O.bmp,n,0.060130199999548495,1,7.757808500000465,,,,,,,,,,,924528,001,2023-12-06_22h25.27.159,ala-gemma-3-pairs,2023.2.3,59.57806812166584,2023-12-06 22h25.33.130955 +0000,
0,0,0,0,0,0,0,0,9,0,9,0,7.771644700000252,,,,,,,,,,,,,,,,,,,,,,,,,,,7.758812400000352,7.759587000000465,7.759624799999983,7.771644700000252,7.9878881000004185,7.956804700000248,7.956861499999832,7.9878881000004185,7.9878881000004185,7.9878881000004185,7.9878881000004185,8.089446199999657,n,0.0897503999995024,None,8.090277299999798,8.09082109999963,8.090848499999993,8.104207700000188,8.353524600000128,8.338189099999909,8.338212200000271,reward,1,£0,P.bmp,£100,O.bmp,£50,D.bmp,9,mismatch,£100,P.bmp,n,0.0897503999995024,1,8.338829199999964,,,,,,,,,,,924528,001,2023-12-06_22h25.27.159,ala-gemma-3-pairs,2023.2.3,59.57806812166584,2023-12-06 22h25.33.130955 +0000,
0,0,0,0,0,0,0,0,10,0,10,0,8.353524600000128,,,,,,,,,,,,,,,,,,,,,,,,,,,8.339457899999616,8.339949700000034,8.33997410000029,8.353524600000128,8.554206200000408,8.53900160000012,8.539032200000293,8.554206200000408,8.554206200000408,8.554206200000408,8.554206200000408,8.571945900000173,m,0.015766500000609085,None,8.572683399999733,8.573196199999984,8.573220500000389,8.587369300000319,8.838641399999688,8.824367299999722,8.824415400000362,reward,1,£0,P.bmp,£100,O.bmp,£50,D.bmp,10,mismatch,£0,D.bmp,m,0.015766500000609085,0,8.825495600000067,,,,,,,,,,,924528,001,2023-12-06_22h25.27.159,ala-gemma-3-pairs,2023.2.3,59.57806812166584,2023-12-06 22h25.33.130955 +0000,
0,0,0,0,0,0,0,0,11,0,11,0,8.838641399999688,,,,,,,,,,,,,,,,,,,,,,,,,,,8.826834499999677,8.82781950000026,8.827874200000224,8.838641399999688,,9.03889429999981,9.038933099999667,9.069218100000398,9.069218100000398,9.069218100000398,9.069218100000398,9.155297500000415,m,0.07310850000067148,None,9.156197000000247,9.156797300000107,9.156826399999773,9.169320400000288,9.418904799999837,9.403534000000036,9.403558699999849,reward,1,£0,P.bmp,£100,O.bmp,£50,D.bmp,11,match2,£100,O.bmp,m,0.07310850000067148,1,9.40410030000021,,,,,,,,,,,924528,001,2023-12-06_22h25.27.159,ala-gemma-3-pairs,2023.2.3,59.57806812166584,2023-12-06 22h25.33.130955 +0000,
0,0,0,0,0,0,0,0,12,0,12,0,9.418904799999837,,,,,,,,,,,,,,,,,,,,,,,,,,,9.404793499999869,9.405240400000366,9.405273000000307,9.418904799999837,9.618540800000119,9.602499900000112,9.602513800000452,9.618540800000119,9.618540800000119,9.618540800000119,9.618540800000119,9.735969399999703,m,0.10598639999989246,None,9.736398900000495,9.736692800000128,9.736706100000447,9.751649300000281,10.001349400000436,9.985332399999606,9.985348000000158,reward,1,£0,P.bmp,£100,O.bmp,£50,D.bmp,12,match1,£0,P.bmp,m,0.10598639999989246,1,9.98569260000022,,,,,,,,,,,924528,001,2023-12-06_22h25.27.159,ala-gemma-3-pairs,2023.2.3,59.57806812166584,2023-12-06 22h25.33.130955 +0000,
0,0,0,0,0,0,0,0,13,0,13,0,10.001349400000436,,,,,,,,,,,,,,,,,,,,,,,,,,,9.98610860000008,9.986404899999798,9.986418000000413,10.001349400000436,10.201068999999734,10.185074300000451,10.185093400000369,10.201068999999734,10.201068999999734,10.201068999999734,10.201068999999734,10.285761799999818,m,0.08204729999943083,None,10.28646099999969,10.286948799999664,10.286971300000005,10.301298299999871,10.551313900000423,10.535198599999603,10.535240799999883,reward,1,£0,P.bmp,£100,O.bmp,£50,D.bmp,13,match2,£100,O.bmp,m,0.08204729999943083,1,10.535844300000463,,,,,,,,,,,924528,001,2023-12-06_22h25.27.159,ala-gemma-3-pairs,2023.2.3,59.57806812166584,2023-12-06 22h25.33.130955 +0000,
0,0,0,0,0,0,0,0,14,0,14,0,10.551313900000423,,,,,,,,,,,,,,,,,,,,,,,,,,,10.536571300000105,10.537165800000366,10.537193000000116,10.551313900000423,10.750211900000068,10.735332500000368,10.735357300000032,10.750211900000068,10.750211900000068,10.750211900000068,10.750211900000068,10.86826209999981,m,0.11023310000018682,None,10.868810900000426,10.869162300000426,10.869179399999666,10.883244499999819,11.13312120000046,11.11782409999978,11.117843199999697,reward,1,£0,P.bmp,£100,O.bmp,£50,D.bmp,14,mismatch,£0,D.bmp,m,0.11023310000018682,0,11.11830110000028,,,,,,,,,,,924528,001,2023-12-06_22h25.27.159,ala-gemma-3-pairs,2023.2.3,59.57806812166584,2023-12-06 22h25.33.130955 +0000,
0,0,0,0,0,0,0,0,15,0,15,0,11.13312120000046,,,,,,,,,,,,,,,,,,,,,,,,,,,11.118832899999688,11.119264799999655,11.119283900000482,11.13312120000046,11.333656800000426,11.317690599999878,11.317720199999712,11.333656800000426,11.333656800000426,11.333656800000426,11.333656800000426,11.353522299999895,n,0.015073300000040035,None,11.354768199999853,11.355569600000308,11.355612199999996,11.368280100000447,11.61724090000007,11.602065000000039,11.602102200000445,reward,1,£0,P.bmp,£100,O.bmp,£50,D.bmp,15,match2,£100,O.bmp,n,0.015073300000040035,0,11.60300350000034,,,,,,,,,,,924528,001,2023-12-06_22h25.27.159,ala-gemma-3-pairs,2023.2.3,59.57806812166584,2023-12-06 22h25.33.130955 +0000,
0,0,0,0,0,0,0,0,16,0,16,0,11.61724090000007,,,,,,,,,,,,,,,,,,,,,,,,,,,11.604081399999814,11.604839499999798,11.604880300000332,11.61724090000007,11.816584899999725,11.801419800000076,11.801451299999826,11.816584899999725,11.816584899999725,11.816584899999725,11.816584899999725,11.850094600000375,m,0.020617899999706424,None,11.85070369999994,11.85109459999967,11.851114000000052,11.865703000000394,12.115866899999673,12.100883500000236,12.100915400000304,reward,1,£0,P.bmp,£100,O.bmp,£50,D.bmp,16,mismatch,£100,P.bmp,m,0.020617899999706424,0,12.101713699999891,,,,,,,,,,,924528,001,2023-12-06_22h25.27.159,ala-gemma-3-pairs,2023.2.3,59.57806812166584,2023-12-06 22h25.33.130955 +0000,
0,0,0,0,0,0,0,0,17,0,17,0,12.115866899999673,,,,,,,,,,,,,,,,,,,,,,,,,,,12.102612200000294,12.103365400000257,12.103399999999965,12.115866899999673,12.316760499999873,12.302102100000411,12.302142800000183,12.316760499999873,12.316760499999873,12.316760499999873,12.316760499999873,12.35057179999967,m,0.030562299999473908,None,12.351322900000014,12.351809499999945,12.351833699999588,12.364990000000034,12.617030899999918,12.599978799999917,12.600009800000407,reward,1,£0,P.bmp,£100,O.bmp,£50,D.bmp,17,mismatch,£100,D.bmp,m,0.030562299999473908,0,12.600746000000072,,,,,,,,,,,924528,001,2023-12-06_22h25.27.159,ala-gemma-3-pairs,2023.2.3,59.57806812166584,2023-12-06 22h25.33.130955 +0000,
0,0,0,0,0,0,0,0,18,0,18,0,12.617030899999918,,,,,,,,,,,,,,,,,,,,,,,,,,,12.601627600000029,12.602326600000197,12.602360699999736,12.617030899999918,,12.815340600000127,12.81536320000032,12.831998599999679,12.831998599999679,12.831998599999679,12.831998599999679,12.901063700000122,m,0.06735029999981634,None,12.902112200000374,12.902758400000494,12.902792599999884,12.93146760000036,,13.164207099999658,13.1642281000004,reward,1,£0,P.bmp,£100,O.bmp,£50,D.bmp,18,match2,£100,O.bmp,m,0.06735029999981634,1,13.164971700000024,,,,,,,,,,,924528,001,2023-12-06_22h25.27.159,ala-gemma-3-pairs,2023.2.3,59.57806812166584,2023-12-06 22h25.33.130955 +0000,
0,0,0,0,0,0,0,0,19,0,19,0,13.181437600000208,,,,,,,,,,,,,,,,,,,,,,,,,,,13.165652599999703,13.166419799999858,13.166445099999692,13.181437600000208,13.380722599999899,13.365671100000327,13.365706900000077,13.380722599999899,13.380722599999899,13.380722599999899,13.380722599999899,13.498747700000422,m,0.11007619999963936,None,13.499715199999628,13.500339799999892,13.500371299999642,13.514000799999849,13.763849400000254,13.749202900000455,13.74924220000048,reward,1,£0,P.bmp,£100,O.bmp,£50,D.bmp,19,match1,£0,P.bmp,m,0.11007619999963936,1,13.75016659999983,,,,,,,,,,,924528,001,2023-12-06_22h25.27.159,ala-gemma-3-pairs,2023.2.3,59.57806812166584,2023-12-06 22h25.33.130955 +0000,
0,0,0,0,0,0,0,0,20,0,20,0,13.763849400000254,,,,,,,,,,,,,,,,,,,,,,,,,,,13.751239999999598,13.752042899999651,13.752085299999635,13.763849400000254,13.96330560000024,13.949464700000135,13.949512600000162,13.96330560000024,13.96330560000024,13.96330560000024,13.96330560000024,14.113692699999774,m,0.13561989999925572,None,14.11424369999986,14.114583100000345,14.114599700000326,14.12910550000015,14.379296199999771,14.36508159999994,14.365124599999945,reward,1,£0,P.bmp,£100,O.bmp,£50,D.bmp,20,mismatch,£100,D.bmp,m,0.13561989999925572,0,14.366078600000037,,,,,,,,,,,924528,001,2023-12-06_22h25.27.159,ala-gemma-3-pairs,2023.2.3,59.57806812166584,2023-12-06 22h25.33.130955 +0000,
0,0,0,0,0,0,0,0,21,0,21,0,14.379296199999771,,,,,,,,,,,,,,,,,,,,,,,,,,,14.367309000000205,14.368011800000204,14.36804360000042,14.379296199999771,14.595517599999766,14.565167800000381,14.565214999999625,14.595517599999766,14.595517599999766,14.595517599999766,14.595517599999766,14.696555900000021,m,0.09049820000018372,None,14.697327800000494,14.697816099999727,14.697839999999815,14.71212319999995,14.961639699999978,14.94639509999979,14.946421999999984,reward,1,£0,P.bmp,£100,O.bmp,£50,D.bmp,21,mismatch,£0,O.bmp,m,0.09049820000018372,0,14.947052399999848,,,,,,,,,,,924528,001,2023-12-06_22h25.27.159,ala-gemma-3-pairs,2023.2.3,59.57806812166584,2023-12-06 22h25.33.130955 +0000,
0,0,0,0,0,0,0,0,22,0,22,0,14.961639699999978,,,,,,,,,,,,,,,,,,,,,,,,,,,14.947847600000387,14.948433000000477,14.948462199999994,14.961639699999978,15.161168200000247,15.14674869999999,15.146778799999993,15.161168200000247,15.161168200000247,15.161168200000247,15.161168200000247,15.248856899999737,m,0.0790102000000843,None,15.250455999999758,15.251627100000405,15.251680800000031,15.262612700000318,15.511242399999901,15.496357900000476,15.496381900000415,reward,1,£0,P.bmp,£100,O.bmp,£50,D.bmp,22,mismatch,£50,O.bmp,m,0.0790102000000843,0,15.496992700000192,,,,,,,,,,,924528,001,2023-12-06_22h25.27.159,ala-gemma-3-pairs,2023.2.3,59.57806812166584,2023-12-06 22h25.33.130955 +0000,
0,0,0,0,0,0,0,0,23,0,23,0,15.511242399999901,,,,,,,,,,,,,,,,,,,,,,,,,,,15.497664700000314,15.498179999999593,15.498205699999744,15.511242399999901,15.727517100000114,15.69821469999988,15.698261499999717,15.727517100000114,15.727517100000114,15.727517100000114,15.727517100000114,15.812033799999881,m,0.07835640000030253,None,15.812797700000374,15.813286499999776,15.813310600000477,15.827423599999747,16.077875900000436,16.062081500000204,16.062117399999806,reward,1,£0,P.bmp,£100,O.bmp,£50,D.bmp,23,match1,£0,P.bmp,m,0.07835640000030253,1,16.062934100000348,,,,,,,,,,,924528,001,2023-12-06_22h25.27.159,ala-gemma-3-pairs,2023.2.3,59.57806812166584,2023-12-06 22h25.33.130955 +0000,
0,0,0,0,0,0,0,0,24,0,24,0,16.077875900000436,,,,,,,,,,,,,,,,,,,,,,,,,,,16.063900699999976,16.064604600000166,16.064642399999684,16.077875900000436,16.27721819999988,16.261485099999845,16.261513299999933,16.27721819999988,16.27721819999988,16.27721819999988,16.27721819999988,16.395198100000016,m,0.10622940000030212,None,16.395989100000406,16.396609000000353,16.39663490000021,16.410263800000394,16.660542499999792,16.644457700000203,16.644486199999847,reward,1,£0,P.bmp,£100,O.bmp,£50,D.bmp,24,mismatch,£100,P.bmp,m,0.10622940000030212,0,16.645156800000223,,,,,,,,,,,924528,001,2023-12-06_22h25.27.159,ala-gemma-3-pairs,2023.2.3,59.57806812166584,2023-12-06 22h25.33.130955 +0000,
0,0,0,0,0,0,0,0,25,0,25,0,16.660542499999792,,,,,,,,,,,,,,,,,,,,,,,,,,,16.64598230000047,16.64657950000037,16.64661200000046,16.660542499999792,16.875661899999614,16.845716900000298,16.845757500000218,16.875661899999614,16.875661899999614,16.875661899999614,16.875661899999614,16.910172099999727,m,0.02775059999930818,None,16.910733300000174,16.91113889999997,16.911156699999992,16.925458800000342,17.176062999999886,17.15961619999962,17.159636299999875,reward,1,£0,P.bmp,£100,O.bmp,£50,D.bmp,25,match3,£50,D.bmp,m,0.02775059999930818,1,17.16020810000009,,,,,,,,,,,924528,001,2023-12-06_22h25.27.159,ala-gemma-3-pairs,2023.2.3,59.57806812166584,2023-12-06 22h25.33.130955 +0000,
0,0,0,0,0,0,0,0,26,0,26,0,17.176062999999886,,,,,,,,,,,,,,,,,,,,,,,,,,,17.160747099999753,17.16118009999991,17.161200200000167,17.176062999999886,17.37566020000031,17.36007830000017,17.360109700000066,17.37566020000031,17.37566020000031,17.37566020000031,17.37566020000031,17.44291869999961,m,0.06238829999983864,None,17.44355050000013,17.443925900000067,17.443941900000027,17.458015700000033,17.707941700000447,17.69312650000029,17.6931526999997,reward,1,£0,P.bmp,£100,O.bmp,£50,D.bmp,26,mismatch,£100,P.bmp,m,0.06238829999983864,0,17.693820100000266,,,,,,,,,,,924528,001,2023-12-06_22h25.27.159,ala-gemma-3-pairs,2023.2.3,59.57806812166584,2023-12-06 22h25.33.130955 +0000,
0,0,0,0,0,0,0,0,27,0,27,0,17.707941700000447,,,,,,,,,,,,,,,,,,,,,,,,,,,17.694544300000416,17.695066500000394,17.695091499999762,17.707941700000447,17.908393599999727,17.892792499999814,17.892819800000325,17.908393599999727,17.908393599999727,17.908393599999727,17.908393599999727,17.977333599999838,m,0.06537409999964439,None,17.97846269999991,17.979210899999998,17.979248700000426,18.0076538000003,,18.241934100000435,18.241957700000057,reward,1,£0,P.bmp,£100,O.bmp,£50,D.bmp,27,match3,£50,D.bmp,m,0.06537409999964439,1,18.2428716000004,,,,,,,,,,,924528,001,2023-12-06_22h25.27.159,ala-gemma-3-pairs,2023.2.3,59.57806812166584,2023-12-06 22h25.33.130955 +0000,
0,0,0,0,0,0,0,0,28,0,28,0,18.257894100000158,,,,,,,,,,,,,,,,,,,,,,,,,,,18.24376779999966,18.244499200000064,18.244533799999772,18.257894100000158,,18.456930999999713,18.456947499999842,18.473625900000116,18.473625900000116,18.473625900000116,18.473625900000116,18.491951199999676,m,0.00927640000008978,None,18.492726700000276,18.4932289999997,18.493252799999937,18.5072339999997,18.757093899999745,18.74249299999974,18.742531699999745,reward,1,£0,P.bmp,£100,O.bmp,£50,D.bmp,28,mismatch,£100,D.bmp,m,0.00927640000008978,0,18.743475500000386,,,,,,,,,,,924528,001,2023-12-06_22h25.27.159,ala-gemma-3-pairs,2023.2.3,59.57806812166584,2023-12-06 22h25.33.130955 +0000,
0,0,0,0,0,0,0,0,29,0,29,0,18.757093899999745,,,,,,,,,,,,,,,,,,,,,,,,,,,18.744593299999906,18.74566109999978,18.745702500000334,18.757093899999745,18.956352100000004,18.94038090000049,18.940403499999775,18.956352100000004,18.956352100000004,18.956352100000004,18.956352100000004,19.07565489999979,m,0.11123059999954421,None,19.076722599999812,19.077393000000484,19.07742750000034,19.089901000000282,19.339548599999944,19.323649799999657,19.323673300000337,reward,1,£0,P.bmp,£100,O.bmp,£50,D.bmp,29,match1,£0,P.bmp,m,0.11123059999954421,1,19.32425460000013,,,,,,,,,,,924528,001,2023-12-06_22h25.27.159,ala-gemma-3-pairs,2023.2.3,59.57806812166584,2023-12-06 22h25.33.130955 +0000,
0,0,0,0,1,0,1,0,0,0,0,0,20.754062400000294,,,,,,,,,,,,,,,,,,,,,,,20.740187700000206,20.74073260000023,20.740757399999893,20.741363000000092,20.742447800000264,20.743018299999676,20.743043800000123,20.754062400000294,20.954208000000108,20.939335199999732,20.93937189999997,20.954208000000108,20.954208000000108,20.954208000000108,20.954208000000108,21.02164679999987,m,0.050903599999401195,None,21.02273739999964,21.023286499999813,21.023312199999964,21.037739700000202,21.287879299999986,21.272224999999708,21.272257100000388,reward,2,£0,P.bmp,£100,O.bmp,£50,D.bmp,0,mismatch,£0,O.bmp,m,0.050903599999401195,0,21.273000500000308,19.324417300000277,19.339548599999944,19.339548599999944,20.73905670000022,space,1.3925325999998677,None,,,,924528,001,2023-12-06_22h25.27.159,ala-gemma-3-pairs,2023.2.3,59.57806812166584,2023-12-06 22h25.33.130955 +0000,
0,0,0,0,1,0,1,0,1,0,1,0,21.287879299999986,,,,,,,,,,,,,,,,,,,,,,,,,,,21.273882499999672,21.274607399999695,21.274642500000482,21.287879299999986,21.50314900000012,21.472304500000064,21.472341900000174,21.50314900000012,21.50314900000012,21.50314900000012,21.50314900000012,21.6379337999997,m,0.11857740000050399,None,21.638749599999755,21.639269399999648,21.639294800000243,21.65277040000001,21.902308300000186,21.886438000000453,21.886457700000392,reward,2,£0,P.bmp,£100,O.bmp,£50,D.bmp,1,mismatch,£50,O.bmp,m,0.11857740000050399,0,21.886900600000445,,,,,,,,,,,924528,001,2023-12-06_22h25.27.159,ala-gemma-3-pairs,2023.2.3,59.57806812166584,2023-12-06 22h25.33.130955 +0000,
0,0,0,0,1,0,1,0,2,0,2,0,21.902308300000186,,,,,,,,,,,,,,,,,,,,,,,,,,,21.88744620000034,21.887849100000494,21.887869299999693,21.902308300000186,22.118552300000374,22.088400800000272,22.088443100000404,22.118552300000374,22.118552300000374,22.118552300000374,22.118552300000374,22.219581399999697,m,0.08506840000063676,None,22.220192099999622,22.22058240000024,22.22060169999986,22.235380500000247,22.48571280000033,22.47035589999996,22.470383500000025,reward,2,£0,P.bmp,£100,O.bmp,£50,D.bmp,2,mismatch,£0,D.bmp,m,0.08506840000063676,0,22.47124040000017,,,,,,,,,,,924528,001,2023-12-06_22h25.27.159,ala-gemma-3-pairs,2023.2.3,59.57806812166584,2023-12-06 22h25.33.130955 +0000,
0,0,0,0,1,0,1,0,3,0,3,0,22.48571280000033,,,,,,,,,,,,,,,,,,,,,,,,,,,22.471959399999832,22.47257239999999,22.47259959999974,22.48571280000033,22.6850015,22.669471899999735,22.669495799999822,22.6850015,22.6850015,22.6850015,22.6850015,22.75294109999959,n,0.06346750000011525,None,22.753720100000464,22.75424320000002,22.754269099999874,22.768327200000385,23.01798179999969,23.001936800000294,23.00196070000038,reward,2,£0,P.bmp,£100,O.bmp,£50,D.bmp,3,mismatch,£50,O.bmp,n,0.06346750000011525,1,23.0025384999999,,,,,,,,,,,924528,001,2023-12-06_22h25.27.159,ala-gemma-3-pairs,2023.2.3,59.57806812166584,2023-12-06 22h25.33.130955 +0000,
0,0,0,0,1,0,1,0,4,0,4,0,23.01798179999969,,,,,,,,,,,,,,,,,,,,,,,,,,,23.0032013,23.003751600000214,23.003776900000048,23.01798179999969,23.217911800000365,23.20188109999981,23.201904900000045,23.217911800000365,23.217911800000365,23.217911800000365,23.217911800000365,23.236149600000317,m,0.01688209999974788,None,23.236975099999654,23.237571800000296,23.237596900000426,23.25062919999982,23.502793599999677,23.48718850000023,23.487235900000087,reward,2,£0,P.bmp,£100,O.bmp,£50,D.bmp,4,match1,£0,P.bmp,m,0.01688209999974788,1,23.488331800000196,,,,,,,,,,,924528,001,2023-12-06_22h25.27.159,ala-gemma-3-pairs,2023.2.3,59.57806812166584,2023-12-06 22h25.33.130955 +0000,
0,0,0,0,1,0,1,0,5,0,5,0,23.502793599999677,,,,,,,,,,,,,,,,,,,,,,,,,,,23.489692400000422,23.490777300000445,23.490831199999775,23.502793599999677,,23.701113000000078,23.701136800000313,23.71722310000041,23.71722310000041,23.71722310000041,23.71722310000041,23.78590340000028,m,0.06160300000010466,None,23.78688229999989,23.78755739999997,23.787588600000163,23.800948699999935,,24.04995390000022,24.04997269999967,reward,2,£0,P.bmp,£100,O.bmp,£50,D.bmp,5,mismatch,£0,D.bmp,m,0.06160300000010466,0,24.050666299999648,,,,,,,,,,,924528,001,2023-12-06_22h25.27.159,ala-gemma-3-pairs,2023.2.3,59.57806812166584,2023-12-06 22h25.33.130955 +0000,
0,0,0,0,1,0,1,0,6,0,6,0,24.06706949999989,,,,,,,,,,,,,,,,,,,,,,,,,,,24.051305900000443,24.051823099999638,24.05184680000002,24.06706949999989,24.26771319999989,24.25293109999984,24.252973499999825,24.26771319999989,24.26771319999989,24.26771319999989,24.26771319999989,24.40083549999963,m,0.12762909999946714,None,24.401582999999846,24.40208249999978,24.40210610000031,24.41670040000008,24.666006299999935,24.65178840000044,24.65182730000015,reward,2,£0,P.bmp,£100,O.bmp,£50,D.bmp,6,match1,£0,P.bmp,m,0.12762909999946714,1,24.65267760000006,,,,,,,,,,,924528,001,2023-12-06_22h25.27.159,ala-gemma-3-pairs,2023.2.3,59.57806812166584,2023-12-06 22h25.33.130955 +0000,
0,0,0,0,1,0,1,0,7,0,7,0,24.666006299999935,,,,,,,,,,,,,,,,,,,,,,,,,,,24.65378839999994,24.65457559999959,24.654616900000292,24.666006299999935,24.86596120000013,24.850474200000463,24.85050450000017,24.86596120000013,24.86596120000013,24.86596120000013,24.86596120000013,24.950070699999742,m,0.08142119999956776,None,24.950778499999615,24.951250500000242,24.95127339999999,24.965374399999746,25.21494249999978,25.19955039999968,25.19957499999964,reward,2,£0,P.bmp,£100,O.bmp,£50,D.bmp,7,match3,£50,D.bmp,m,0.08142119999956776,1,25.20010319999983,,,,,,,,,,,924528,001,2023-12-06_22h25.27.159,ala-gemma-3-pairs,2023.2.3,59.57806812166584,2023-12-06 22h25.33.130955 +0000,
0,0,0,0,1,0,1,0,8,0,8,0,25.21494249999978,,,,,,,,,,,,,,,,,,,,,,,,,,,25.200789700000314,25.20132879999983,25.201354099999662,25.21494249999978,25.41505320000033,25.399676900000486,25.39970439999979,25.41505320000033,25.41505320000033,25.41505320000033,25.41505320000033,25.515988400000424,n,0.0996925999997984,None,25.516680699999597,25.51713749999999,25.51715890000014,25.53088149999985,25.780919300000278,25.76566559999992,25.76569120000022,reward,2,£0,P.bmp,£100,O.bmp,£50,D.bmp,8,match2,£100,O.bmp,n,0.0996925999997984,0,25.76631120000002,,,,,,,,,,,924528,001,2023-12-06_22h25.27.159,ala-gemma-3-pairs,2023.2.3,59.57806812166584,2023-12-06 22h25.33.130955 +0000,
0,0,0,0,1,0,1,0,9,0,9,0,25.780919300000278,,,,,,,,,,,,,,,,,,,,,,,,,,,25.76703970000017,25.767627400000492,25.76765400000022,25.780919300000278,25.99743690000014,25.965930500000468,25.965965200000028,25.99743690000014,25.99743690000014,25.99743690000014,25.99743690000014,26.065280300000268,m,0.05619430000024295,None,26.066072700000404,26.06659479999962,26.066620700000385,26.080804600000192,26.330061700000442,26.314752899999803,26.314777700000377,reward,2,£0,P.bmp,£100,O.bmp,£50,D.bmp,9,mismatch,£50,P.bmp,m,0.05619430000024295,0,26.315394000000197,,,,,,,,,,,924528,001,2023-12-06_22h25.27.159,ala-gemma-3-pairs,2023.2.3,59.57806812166584,2023-12-06 22h25.33.130955 +0000,
0,0,0,0,1,0,1,0,10,0,10,0,26.330061700000442,,,,,,,,,,,,,,,,,,,,,,,,,,,26.316031100000146,26.31655000000046,26.316573099999914,26.330061700000442,26.530644000000393,26.514694899999995,26.514729499999703,26.530644000000393,26.530644000000393,26.530644000000393,26.530644000000393,26.597313600000234,m,0.06257649999952264,None,26.597985399999743,26.59841570000026,26.598436899999797,26.612858100000267,26.86386880000009,26.847879699999794,26.847911699999713,reward,2,£0,P.bmp,£100,O.bmp,£50,D.bmp,10,mismatch,£50,P.bmp,m,0.06257649999952264,0,26.848770200000217,,,,,,,,,,,924528,001,2023-12-06_22h25.27.159,ala-gemma-3-pairs,2023.2.3,59.57806812166584,2023-12-06 22h25.33.130955 +0000,
0,0,0,0,1,0,1,0,11,0,11,0,26.86386880000009,,,,,,,,,,,,,,,,,,,,,,,,,,,26.849669400000494,26.850358900000174,26.85039289999986,26.86386880000009,27.07912740000029,27.049912000000404,27.049960500000452,27.07912740000029,27.07912740000029,27.07912740000029,27.07912740000029,27.11467580000044,n,0.01930869999978313,None,27.11558200000036,27.116197500000453,27.116226600000118,27.12922030000027,27.379304799999773,27.364635900000394,27.36466879999989,reward,2,£0,P.bmp,£100,O.bmp,£50,D.bmp,11,match2,£100,O.bmp,n,0.01930869999978313,0,27.36561249999977,,,,,,,,,,,924528,001,2023-12-06_22h25.27.159,ala-gemma-3-pairs,2023.2.3,59.57806812166584,2023-12-06 22h25.33.130955 +0000,
0,0,0,0,1,0,1,0,12,0,12,0,27.379304799999773,,,,,,,,,,,,,,,,,,,,,,,,,,,27.36657910000031,27.367357000000084,27.367393399999855,27.379304799999773,27.595338500000253,27.564499899999646,27.564537199999904,27.595338500000253,27.595338500000253,27.595338500000253,27.595338500000253,27.696064900000238,n,0.09674540000014531,None,27.696697600000334,27.69711180000013,27.697131799999624,27.7115045999999,27.961240200000248,27.945989900000313,27.946014899999682,reward,2,£0,P.bmp,£100,O.bmp,£50,D.bmp,12,mismatch,£100,P.bmp,n,0.09674540000014531,1,27.94658679999975,,,,,,,,,,,924528,001,2023-12-06_22h25.27.159,ala-gemma-3-pairs,2023.2.3,59.57806812166584,2023-12-06 22h25.33.130955 +0000,
0,0,0,0,1,0,1,0,13,0,13,0,27.961240200000248,,,,,,,,,,,,,,,,,,,,,,,,,,,27.947288299999855,27.94782750000013,27.94785260000026,27.961240200000248,28.16100600000027,28.144950799999606,28.144973100000243,28.16100600000027,28.16100600000027,28.16100600000027,28.16100600000027,28.24666739999975,m,0.08347299999968527,None,28.24762980000014,28.24825669999973,28.248287499999606,28.261348300000463,28.51269289999982,28.49710640000012,28.497153700000126,reward,2,£0,P.bmp,£100,O.bmp,£50,D.bmp,13,match1,£0,P.bmp,m,0.08347299999968527,1,28.49828780000007,,,,,,,,,,,924528,001,2023-12-06_22h25.27.159,ala-gemma-3-pairs,2023.2.3,59.57806812166584,2023-12-06 22h25.33.130955 +0000,
0,0,0,0,1,0,1,0,14,0,14,0,28.51269289999982,,,,,,,,,,,,,,,,,,,,,,,,,,,28.499632899999597,28.500754400000005,28.50080650000018,28.51269289999982,,28.711211800000456,28.711243099999592,28.743538599999738,28.743538599999738,28.743538599999738,28.743538599999738,28.7628751000002,n,0.016661999999996624,None,28.763792300000205,28.764474900000096,28.76450399999976,28.777302299999974,29.027438699999948,29.011644899999737,29.01167330000044,reward,2,£0,P.bmp,£100,O.bmp,£50,D.bmp,14,match3,£50,D.bmp,n,0.016661999999996624,0,29.012389800000165,,,,,,,,,,,924528,001,2023-12-06_22h25.27.159,ala-gemma-3-pairs,2023.2.3,59.57806812166584,2023-12-06 22h25.33.130955 +0000,
0,0,0,0,1,0,1,0,15,0,15,0,29.027438699999948,,,,,,,,,,,,,,,,,,,,,,,,,,,29.013209100000495,29.013874399999622,29.013905400000112,29.027438699999948,29.226828800000476,29.211111200000232,29.211140100000193,29.226828800000476,29.226828800000476,29.226828800000476,29.226828800000476,29.343876699999782,m,0.11052650000056019,None,29.344557399999758,29.34498900000017,29.345018099999834,29.359579799999665,29.60946729999978,29.593844400000307,29.593871400000353,reward,2,£0,P.bmp,£100,O.bmp,£50,D.bmp,15,match3,£50,D.bmp,m,0.11052650000056019,1,29.59455640000033,,,,,,,,,,,924528,001,2023-12-06_22h25.27.159,ala-gemma-3-pairs,2023.2.3,59.57806812166584,2023-12-06 22h25.33.130955 +0000,
0,0,0,0,1,0,1,0,16,0,16,0,29.60946729999978,,,,,,,,,,,,,,,,,,,,,,,,,,,29.59534580000036,29.595989499999632,29.596018000000186,29.60946729999978,29.809365600000092,29.7933165000004,29.7933409999996,29.809365600000092,29.809365600000092,29.809365600000092,29.809365600000092,30.01020630000039,m,0.1990009999999529,None,30.010879499999646,30.011370400000487,30.011391500000173,30.024825800000144,30.27490829999988,30.25927690000026,30.259299199999987,reward,2,£0,P.bmp,£100,O.bmp,£50,D.bmp,16,mismatch,£100,P.bmp,m,0.1990009999999529,0,30.259889799999655,,,,,,,,,,,924528,001,2023-12-06_22h25.27.159,ala-gemma-3-pairs,2023.2.3,59.57806812166584,2023-12-06 22h25.33.130955 +0000,
0,0,0,0,1,0,1,0,17,0,17,0,30.27490829999988,,,,,,,,,,,,,,,,,,,,,,,,,,,30.260726600000453,30.26125740000043,30.261281199999758,30.27490829999988,30.491126699999768,30.460506800000076,30.460545599999932,30.491126699999768,30.491126699999768,30.491126699999768,30.491126699999768,30.66003069999988,n,0.15860759999941365,None,30.66106740000032,30.661747699999978,30.661782400000448,30.67488979999962,30.92401979999977,30.908373899999788,30.908392299999832,reward,2,£0,P.bmp,£100,O.bmp,£50,D.bmp,17,mismatch,£0,D.bmp,n,0.15860759999941365,1,30.908773699999983,,,,,,,,,,,924528,001,2023-12-06_22h25.27.159,ala-gemma-3-pairs,2023.2.3,59.57806812166584,2023-12-06 22h25.33.130955 +0000,
0,0,0,0,1,0,1,0,18,0,18,0,30.92401979999977,,,,,,,,,,,,,,,,,,,,,,,,,,,30.909260999999788,30.909648200000447,30.9096655000003,30.92401979999977,31.124451700000463,31.109010099999978,31.1090422999996,31.124451700000463,31.124451700000463,31.124451700000463,31.124451700000463,31.325362999999925,n,0.19673530000000028,None,31.326172699999915,31.326742100000047,31.326775800000178,31.340251900000112,31.589546700000028,31.575072900000123,31.575095299999703,reward,2,£0,P.bmp,£100,O.bmp,£50,D.bmp,18,match1,£0,P.bmp,n,0.19673530000000028,0,31.575627799999893,,,,,,,,,,,924528,001,2023-12-06_22h25.27.159,ala-gemma-3-pairs,2023.2.3,59.57806812166584,2023-12-06 22h25.33.130955 +0000,
0,0,0,0,1,0,1,0,19,0,19,0,31.589546700000028,,,,,,,,,,,,,,,,,,,,,,,,,,,31.576255900000433,31.57687040000019,31.576894300000276,31.589546700000028,31.790594400000373,31.773798100000022,31.773823499999708,31.790594400000373,31.790594400000373,31.790594400000373,31.790594400000373,31.87489060000007,n,0.07970759999989241,None,31.87563599999976,31.876123600000028,31.876147599999967,31.889669899999717,32.13926559999982,32.12496009999995,32.12499519999983,reward,2,£0,P.bmp,£100,O.bmp,£50,D.bmp,19,mismatch,£100,P.bmp,n,0.07970759999989241,1,32.1257999999998,,,,,,,,,,,924528,001,2023-12-06_22h25.27.159,ala-gemma-3-pairs,2023.2.3,59.57806812166584,2023-12-06 22h25.33.130955 +0000,
0,0,0,0,1,0,1,0,20,0,20,0,32.13926559999982,,,,,,,,,,,,,,,,,,,,,,,,,,,32.126785700000255,32.127521100000195,32.12755819999984,32.13926559999982,32.33874610000021,32.32385869999962,32.32388770000034,32.33874610000021,32.33874610000021,32.33874610000021,32.33874610000021,32.49088649999976,m,0.13551269999970827,None,32.491868299999624,32.492519999999786,32.492551000000276,32.50588940000034,32.75643339999988,32.740518800000245,32.74055640000006,reward,2,£0,P.bmp,£100,O.bmp,£50,D.bmp,20,match1,£0,P.bmp,m,0.13551269999970827,1,32.741443799999615,,,,,,,,,,,924528,001,2023-12-06_22h25.27.159,ala-gemma-3-pairs,2023.2.3,59.57806812166584,2023-12-06 22h25.33.130955 +0000,
0,0,0,0,1,0,1,0,21,0,21,0,32.75643339999988,,,,,,,,,,,,,,,,,,,,,,,,,,,32.742526,32.74337439999999,32.74341600000025,32.75643339999988,32.97176760000002,32.94114509999963,32.94118179999987,32.97176760000002,32.97176760000002,32.97176760000002,32.97176760000002,33.039008300000205,m,0.055733799999870826,None,33.039655000000494,33.040069499999845,33.040089299999636,33.05427190000046,33.30418720000034,33.288626900000054,33.28865020000012,reward,2,£0,P.bmp,£100,O.bmp,£50,D.bmp,21,mismatch,£50,P.bmp,m,0.055733799999870826,0,33.28919849999966,,,,,,,,,,,924528,001,2023-12-06_22h25.27.159,ala-gemma-3-pairs,2023.2.3,59.57806812166584,2023-12-06 22h25.33.130955 +0000,
0,0,0,0,1,0,1,0,22,0,22,0,33.30418720000034,,,,,,,,,,,,,,,,,,,,,,,,,,,33.28982369999994,33.29034589999992,33.29036929999984,33.30418720000034,33.52049050000005,33.48946100000012,33.4894948000001,33.52049050000005,33.52049050000005,33.52049050000005,33.52049050000005,33.60569639999994,n,0.07997849999992468,None,33.6066922,33.607232600000316,33.607259800000065,33.62081180000041,33.87009169999965,33.854637499999626,33.85465790000035,reward,2,£0,P.bmp,£100,O.bmp,£50,D.bmp,22,match2,£100,O.bmp,n,0.07997849999992468,0,33.85512889999973,,,,,,,,,,,924528,001,2023-12-06_22h25.27.159,ala-gemma-3-pairs,2023.2.3,59.57806812166584,2023-12-06 22h25.33.130955 +0000,
0,0,0,0,1,0,1,0,23,0,23,0,33.87009169999965,,,,,,,,,,,,,,,,,,,,,,,,,,,33.85569880000003,33.85612829999991,33.85614919999989,33.87009169999965,34.070175500000005,34.05468010000004,34.05470369999966,34.070175500000005,34.070175500000005,34.070175500000005,34.070175500000005,34.08796660000007,n,0.015787899999850197,None,34.088606000000254,34.08900460000041,34.089024699999754,34.10310209999989,34.35259700000006,34.33743289999984,34.33745329999965,reward,2,£0,P.bmp,£100,O.bmp,£50,D.bmp,23,match2,£100,O.bmp,n,0.015787899999850197,0,34.337991299999885,,,,,,,,,,,924528,001,2023-12-06_22h25.27.159,ala-gemma-3-pairs,2023.2.3,59.57806812166584,2023-12-06 22h25.33.130955 +0000,
0,0,0,0,1,0,1,0,24,0,24,0,34.35259700000006,,,,,,,,,,,,,,,,,,,,,,,,,,,34.33855839999978,34.33901359999982,34.33903530000043,34.35259700000006,34.56925490000049,34.53810419999991,34.538142000000335,34.56925490000049,34.56925490000049,34.56925490000049,34.56925490000049,34.58740570000009,n,0.0024481999998897663,None,34.58811810000043,34.58859250000023,34.58861539999998,34.6028081000004,34.85253780000039,34.83769659999962,34.83773350000047,reward,2,£0,P.bmp,£100,O.bmp,£50,D.bmp,24,match3,£50,D.bmp,n,0.0024481999998897663,0,34.838612999999896,,,,,,,,,,,924528,001,2023-12-06_22h25.27.159,ala-gemma-3-pairs,2023.2.3,59.57806812166584,2023-12-06 22h25.33.130955 +0000,
0,0,0,0,1,0,1,0,25,0,25,0,34.85253780000039,,,,,,,,,,,,,,,,,,,,,,,,,,,34.83967219999977,34.84060680000039,34.84064740000031,34.85253780000039,35.06866929999978,35.0365668000004,35.03659619999962,35.06866929999978,35.06866929999978,35.06866929999978,35.06866929999978,35.1697393000004,m,0.09797809999963647,None,35.170440699999745,35.17090710000048,35.170929400000205,35.18511149999995,35.43570759999966,35.42073669999991,35.42077549999976,reward,2,£0,P.bmp,£100,O.bmp,£50,D.bmp,25,mismatch,£100,D.bmp,m,0.09797809999963647,0,35.42174960000011,,,,,,,,,,,924528,001,2023-12-06_22h25.27.159,ala-gemma-3-pairs,2023.2.3,59.57806812166584,2023-12-06 22h25.33.130955 +0000,
0,0,0,0,1,0,1,0,26,0,26,0,35.43570759999966,,,,,,,,,,,,,,,,,,,,,,,,,,,35.422861099999864,35.42371610000009,35.42375859999993,35.43570759999966,35.63490040000033,35.620143400000416,35.62017660000038,35.63490040000033,35.63490040000033,35.63490040000033,35.63490040000033,35.65251989999979,m,0.00706609999997454,None,35.65330199999971,35.653836200000114,35.65386169999965,35.66859589999967,35.91777689999981,35.90246019999995,35.90248950000023,reward,2,£0,P.bmp,£100,O.bmp,£50,D.bmp,26,match2,£100,O.bmp,m,0.00706609999997454,1,35.90316020000046,,,,,,,,,,,924528,001,2023-12-06_22h25.27.159,ala-gemma-3-pairs,2023.2.3,59.57806812166584,2023-12-06 22h25.33.130955 +0000,
0,0,0,0,1,0,1,0,27,0,27,0,35.91777689999981,,,,,,,,,,,,,,,,,,,,,,,,,,,35.90402129999984,35.9047657000001,35.90479659999983,35.91777689999981,36.117598499999986,36.102864299999965,36.10289769999963,36.117598499999986,36.117598499999986,36.117598499999986,36.117598499999986,36.151470800000425,m,0.019066199999542732,None,36.15199229999962,36.15231930000027,36.152335499999936,36.16692719999992,36.41828820000046,36.40270899999996,36.40274550000049,reward,2,£0,P.bmp,£100,O.bmp,£50,D.bmp,27,mismatch,£50,P.bmp,m,0.019066199999542732,0,36.4036202999996,,,,,,,,,,,924528,001,2023-12-06_22h25.27.159,ala-gemma-3-pairs,2023.2.3,59.57806812166584,2023-12-06 22h25.33.130955 +0000,
0,0,0,0,1,0,1,0,28,0,28,0,36.41828820000046,,,,,,,,,,,,,,,,,,,,,,,,,,,36.404649600000084,36.4053715,36.405408100000386,36.41828820000046,36.6171161000002,36.60295260000021,36.60298919999968,36.6171161000002,36.6171161000002,36.6171161000002,36.6171161000002,36.71886119999999,n,0.0834354999997231,None,36.71990110000024,36.72056919999977,36.720603499999925,36.73377520000031,,36.982981899999686,36.983002199999646,reward,2,£0,P.bmp,£100,O.bmp,£50,D.bmp,28,match3,£50,D.bmp,n,0.0834354999997231,0,36.983710900000005,,,,,,,,,,,924528,001,2023-12-06_22h25.27.159,ala-gemma-3-pairs,2023.2.3,59.57806812166584,2023-12-06 22h25.33.130955 +0000,
0,0,0,0,1,0,1,0,29,0,29,0,36.99967410000045,,,,,,,,,,,,,,,,,,,,,,,,,,,36.98433870000008,36.98492470000019,36.98494959999971,36.99967410000045,37.19967970000016,37.18313969999963,37.18316059999961,37.19967970000016,37.19967970000016,37.19967970000016,37.19967970000016,37.25063990000035,n,0.04074399999990419,None,37.25135349999982,37.251825199999985,37.25184780000018,37.265944699999636,37.54855729999963,37.50165440000001,37.501693799999885,reward,2,£0,P.bmp,£100,O.bmp,£50,D.bmp,29,mismatch,£0,D.bmp,n,0.04074399999990419,1,37.50269660000049,,,,,,,,,,,924528,001,2023-12-06_22h25.27.159,ala-gemma-3-pairs,2023.2.3,59.57806812166584,2023-12-06 22h25.33.130955 +0000,
1,0,1,0,0,0,0,0,0,0,0,0,39.71233959999972,,,,,,37.50405589999991,37.50486280000041,37.50490480000008,37.54855729999963,37.54855729999963,37.54855729999963,37.54855729999963,37.54855729999963,37.54855729999963,37.54855729999963,37.54855729999963,39.696869100000185,space,2.136275200000455,None,39.697248299999956,39.69760440000027,39.69825359999959,39.69860169999993,39.69861800000035,39.6989937999997,39.699652100000094,39.70003749999978,39.70005419999961,39.71233959999972,39.91257310000037,39.89761300000009,39.89764350000041,39.91257310000037,39.91257310000037,39.91257310000037,39.91257310000037,40.09773219999988,n,0.1819114999998419,None,40.098977300000115,40.099573299999975,40.099602199999936,40.11295080000036,40.361862400000064,40.34808919999978,40.34812179999972,valence,1,neutral,H.bmp,happy,R.bmp,sad,X.bmp,0,match3,sad,X.bmp,n,0.1819114999998419,0,40.348930299999665,37.50295310000001,,,37.50305560000015,None,,,,,,924528,001,2023-12-06_22h25.27.159,ala-gemma-3-pairs,2023.2.3,59.57806812166584,2023-12-06 22h25.33.130955 +0000,
1,0,1,0,0,0,0,0,1,0,1,0,40.361862400000064,,,,,,,,,,,,,,,,,,,,,,,,,,,40.349831300000005,40.35047740000027,40.350511200000255,40.361862400000064,40.561803900000086,40.54663270000037,40.546662099999594,40.561803900000086,40.561803900000086,40.561803900000086,40.561803900000086,40.67983819999972,m,0.11291800000071817,None,40.680597300000045,40.68108850000044,40.68111260000023,40.69483279999986,40.94458180000038,40.92910200000006,40.92913060000046,valence,1,neutral,H.bmp,happy,R.bmp,sad,X.bmp,1,match3,sad,X.bmp,m,0.11291800000071817,1,40.92978570000014,,,,,,,,,,,924528,001,2023-12-06_22h25.27.159,ala-gemma-3-pairs,2023.2.3,59.57806812166584,2023-12-06 22h25.33.130955 +0000,
1,0,1,0,0,0,0,0,2,0,2,0,40.94458180000038,,,,,,,,,,,,,,,,,,,,,,,,,,,40.93062329999975,40.93122229999972,40.93125380000038,40.94458180000038,41.14410539999972,41.12868210000033,41.12870490000023,41.14410539999972,41.14410539999972,41.14410539999972,41.14410539999972,41.178657999999814,n,0.028778899999451824,None,41.17931570000019,41.17973940000047,41.179760400000305,41.193657200000416,41.44482909999988,41.431009099999756,41.43106449999959,valence,1,neutral,H.bmp,happy,R.bmp,sad,X.bmp,2,match2,happy,R.bmp,n,0.028778899999451824,0,41.432312300000376,,,,,,,,,,,924528,001,2023-12-06_22h25.27.159,ala-gemma-3-pairs,2023.2.3,59.57806812166584,2023-12-06 22h25.33.130955 +0000,
1,0,1,0,0,0,0,0,3,0,3,0,41.44482909999988,,,,,,,,,,,,,,,,,,,,,,,,,,,41.4337486000004,41.43481109999993,41.43486480000047,41.44482909999988,,41.64431109999987,41.64433350000036,41.66005580000001,41.66005580000001,41.66005580000001,41.66005580000001,41.84420620000037,n,0.1721268000001146,None,41.84495470000002,41.84551259999989,41.84553659999983,41.86033950000001,42.110279000000446,42.09576730000026,42.095801200000096,valence,1,neutral,H.bmp,happy,R.bmp,sad,X.bmp,3,mismatch,sad,H.bmp,n,0.1721268000001146,1,42.09652989999995,,,,,,,,,,,924528,001,2023-12-06_22h25.27.159,ala-gemma-3-pairs,2023.2.3,59.57806812166584,2023-12-06 22h25.33.130955 +0000,
1,0,1,0,0,0,0,0,4,0,4,0,42.110279000000446,,,,,,,,,,,,,,,,,,,,,,,,,,,42.09744860000046,42.098100899999736,42.09813440000016,42.110279000000446,42.325887500000135,42.294760900000256,42.29479199999969,42.325887500000135,42.325887500000135,42.325887500000135,42.325887500000135,42.460148899999695,n,0.12649580000015703,None,42.46085080000012,42.46131119999973,42.461333500000364,42.475725299999795,42.72563210000044,42.709849900000336,42.70987640000021,valence,1,neutral,H.bmp,happy,R.bmp,sad,X.bmp,4,match1,neutral,H.bmp,n,0.12649580000015703,0,42.710394100000485,,,,,,,,,,,924528,001,2023-12-06_22h25.27.159,ala-gemma-3-pairs,2023.2.3,59.57806812166584,2023-12-06 22h25.33.130955 +0000,
1,0,1,0,0,0,0,0,5,0,5,0,42.72563210000044,,,,,,,,,,,,,,,,,,,,,,,,,,,42.711129500000425,42.711708400000134,42.71173590000035,42.72563210000044,42.92507939999996,42.909289700000045,42.90930709999975,42.92507939999996,42.92507939999996,42.92507939999996,42.92507939999996,43.00970940000025,n,0.07479179999972985,None,43.0105039,43.0110408999999,43.01106600000003,43.02519610000036,43.27454560000024,43.25854140000047,43.258560399999624,valence,1,neutral,H.bmp,happy,R.bmp,sad,X.bmp,5,mismatch,neutral,X.bmp,n,0.07479179999972985,1,43.2589995999997,,,,,,,,,,,924528,001,2023-12-06_22h25.27.159,ala-gemma-3-pairs,2023.2.3,59.57806812166584,2023-12-06 22h25.33.130955 +0000,
1,0,1,0,0,0,0,0,6,0,6,0,43.27454560000024,,,,,,,,,,,,,,,,,,,,,,,,,,,43.25952700000016,43.25999969999975,43.260019000000284,43.27454560000024,43.490610599999854,43.459932099999605,43.45996709999963,43.490610599999854,43.490610599999854,43.490610599999854,43.490610599999854,43.60890649999965,n,0.10136409999995522,None,43.60974230000011,43.61036270000022,43.61038970000027,43.6256843000001,,43.87395279999964,43.87397130000045,valence,1,neutral,H.bmp,happy,R.bmp,sad,X.bmp,6,mismatch,happy,X.bmp,n,0.10136409999995522,1,43.87473419999969,,,,,,,,,,,924528,001,2023-12-06_22h25.27.159,ala-gemma-3-pairs,2023.2.3,59.57806812166584,2023-12-06 22h25.33.130955 +0000,
1,0,1,0,0,0,0,0,7,0,7,0,43.890185199999905,,,,,,,,,,,,,,,,,,,,,,,,,,,43.87530229999993,43.87574769999992,43.87576820000049,43.890185199999905,44.090532500000336,44.07415730000048,44.07418119999966,44.090532500000336,44.090532500000336,44.090532500000336,44.090532500000336,44.15944039999977,n,0.06050630000027013,None,44.1606240000001,44.161326200000076,44.16136319999987,44.1739005999998,44.42357590000029,44.40818169999966,44.408210800000234,valence,1,neutral,H.bmp,happy,R.bmp,sad,X.bmp,7,mismatch,neutral,X.bmp,n,0.06050630000027013,1,44.408861400000205,,,,,,,,,,,924528,001,2023-12-06_22h25.27.159,ala-gemma-3-pairs,2023.2.3,59.57806812166584,2023-12-06 22h25.33.130955 +0000,
1,0,1,0,0,0,0,0,8,0,8,0,44.42357590000029,,,,,,,,,,,,,,,,,,,,,,,,,,,44.40969969999969,44.410297600000376,44.410329100000126,44.42357590000029,44.63916489999974,44.60814449999998,44.60818550000022,44.63916489999974,44.63916489999974,44.63916489999974,44.63916489999974,44.74040309999964,n,0.09663329999966663,None,44.74098760000015,44.741400500000054,44.74141859999963,44.75555720000011,45.005861200000254,44.99008359999971,44.990107999999964,valence,1,neutral,H.bmp,happy,R.bmp,sad,X.bmp,8,match2,happy,R.bmp,n,0.09663329999966663,0,44.990647499999795,,,,,,,,,,,924528,001,2023-12-06_22h25.27.159,ala-gemma-3-pairs,2023.2.3,59.57806812166584,2023-12-06 22h25.33.130955 +0000,
1,0,1,0,0,0,0,0,9,0,9,0,45.005861200000254,,,,,,,,,,,,,,,,,,,,,,,,,,,44.991322500000024,44.99191659999997,44.991941600000246,45.005861200000254,45.22179219999998,45.1909440999998,45.19097479999982,45.22179219999998,45.22179219999998,45.22179219999998,45.22179219999998,45.25773449999997,n,0.02243559999988065,None,45.258504899999934,45.25901650000014,45.25904989999981,45.2715661000002,45.52246509999986,45.5067183000001,45.50675080000019,valence,1,neutral,H.bmp,happy,R.bmp,sad,X.bmp,9,mismatch,neutral,R.bmp,n,0.02243559999988065,1,45.507478499999706,,,,,,,,,,,924528,001,2023-12-06_22h25.27.159,ala-gemma-3-pairs,2023.2.3,59.57806812166584,2023-12-06 22h25.33.130955 +0000,
1,0,1,0,0,0,0,0,10,0,10,0,45.52246509999986,,,,,,,,,,,,,,,,,,,,,,,,,,,45.50837080000019,45.50906639999994,45.5090997999996,45.52246509999986,45.721816899999794,45.70642299999963,45.706452000000354,45.721816899999794,45.721816899999794,45.721816899999794,45.721816899999794,45.77214939999976,n,0.04394050000064453,None,45.77272090000042,45.77308600000015,45.773103499999706,45.78752239999994,46.03841079999984,46.0238889000002,46.02393510000002,valence,1,neutral,H.bmp,happy,R.bmp,sad,X.bmp,10,match3,sad,X.bmp,n,0.04394050000064453,0,46.02505420000034,,,,,,,,,,,924528,001,2023-12-06_22h25.27.159,ala-gemma-3-pairs,2023.2.3,59.57806812166584,2023-12-06 22h25.33.130955 +0000,
1,0,1,0,0,0,0,0,11,0,11,0,46.03841079999984,,,,,,,,,,,,,,,,,,,,,,,,,,,46.02643429999989,46.0275187999996,46.027571599999646,46.03841079999984,46.23799020000024,46.2221798999999,46.22221239999999,46.23799020000024,46.23799020000024,46.23799020000024,46.23799020000024,46.28790959999969,n,0.037207800000032876,None,46.28845100000035,46.288791500000116,46.288808000000245,46.30402810000032,46.55347340000026,46.53772420000041,46.53774599999997,valence,1,neutral,H.bmp,happy,R.bmp,sad,X.bmp,11,mismatch,sad,H.bmp,n,0.037207800000032876,1,46.538223200000175,,,,,,,,,,,924528,001,2023-12-06_22h25.27.159,ala-gemma-3-pairs,2023.2.3,59.57806812166584,2023-12-06 22h25.33.130955 +0000,
1,0,1,0,0,0,0,0,12,0,12,0,46.55347340000026,,,,,,,,,,,,,,,,,,,,,,,,,,,46.538801100000455,46.539251299999705,46.539272600000004,46.55347340000026,46.75308109999969,46.737542300000314,46.737567400000444,46.75308109999969,46.75308109999969,46.75308109999969,46.75308109999969,46.87167270000009,m,0.10601170000063576,None,46.87256609999986,46.87317679999978,46.87320600000021,46.88660880000043,47.13693440000043,47.1211844999998,47.12121279999974,valence,1,neutral,H.bmp,happy,R.bmp,sad,X.bmp,12,mismatch,sad,H.bmp,m,0.10601170000063576,0,47.12192200000027,,,,,,,,,,,924528,001,2023-12-06_22h25.27.159,ala-gemma-3-pairs,2023.2.3,59.57806812166584,2023-12-06 22h25.33.130955 +0000,
1,0,1,0,0,0,0,0,13,0,13,0,47.13693440000043,,,,,,,,,,,,,,,,,,,,,,,,,,,47.1227128999999,47.123301900000115,47.12333089999993,47.13693440000043,,47.33609679999972,47.33611579999979,47.35274019999997,47.35274019999997,47.35274019999997,47.35274019999997,47.42143759999999,n,0.06714469999951689,None,47.422401300000274,47.42305740000029,47.42308909999974,47.43643390000034,47.68667550000009,47.671114200000375,47.67114719999972,valence,1,neutral,H.bmp,happy,R.bmp,sad,X.bmp,13,mismatch,happy,X.bmp,n,0.06714469999951689,1,47.6718834000003,,,,,,,,,,,924528,001,2023-12-06_22h25.27.159,ala-gemma-3-pairs,2023.2.3,59.57806812166584,2023-12-06 22h25.33.130955 +0000,
1,0,1,0,0,0,0,0,14,0,14,0,47.68667550000009,,,,,,,,,,,,,,,,,,,,,,,,,,,47.67283250000037,47.67343609999989,47.67348320000019,47.68667550000009,47.885458599999765,47.87021639999966,47.870246499999666,47.885458599999765,47.885458599999765,47.885458599999765,47.885458599999765,47.97026800000003,m,0.0727816000007806,None,47.97115639999993,47.97174180000002,47.971781199999896,47.98587620000035,48.23500890000014,48.21938490000048,48.21941210000023,valence,1,neutral,H.bmp,happy,R.bmp,sad,X.bmp,14,mismatch,neutral,X.bmp,m,0.0727816000007806,0,48.22006070000043,,,,,,,,,,,924528,001,2023-12-06_22h25.27.159,ala-gemma-3-pairs,2023.2.3,59.57806812166584,2023-12-06 22h25.33.130955 +0000,
1,0,1,0,0,0,0,0,15,0,15,0,48.23500890000014,,,,,,,,,,,,,,,,,,,,,,,,,,,48.22083310000016,48.22142520000034,48.221453799999836,48.23500890000014,48.43544589999965,48.419323500000246,48.41934820000006,48.43544589999965,48.43544589999965,48.43544589999965,48.43544589999965,48.53631459999997,m,0.09516609999991488,None,48.53719050000018,48.53779779999968,48.5378268000004,48.551662699999724,48.80274329999975,48.78825030000007,48.78829889999997,valence,1,neutral,H.bmp,happy,R.bmp,sad,X.bmp,15,match1,neutral,H.bmp,m,0.09516609999991488,1,48.78945810000005,,,,,,,,,,,924528,001,2023-12-06_22h25.27.159,ala-gemma-3-pairs,2023.2.3,59.57806812166584,2023-12-06 22h25.33.130955 +0000,
1,0,1,0,0,0,0,0,16,0,16,0,48.80274329999975,,,,,,,,,,,,,,,,,,,,,,,,,,,48.79081380000025,48.79194530000041,48.79200010000022,48.80274329999975,,49.00164159999986,49.001670800000284,49.03380219999963,49.03380219999963,49.03380219999963,49.03380219999963,49.08639949999997,m,0.043235899999672256,None,49.0874616000001,49.0882217999997,49.08825609999985,49.10057719999986,49.35050299999966,49.33581080000022,49.33584739999969,valence,1,neutral,H.bmp,happy,R.bmp,sad,X.bmp,16,mismatch,sad,R.bmp,m,0.043235899999672256,0,49.33668080000007,,,,,,,,,,,924528,001,2023-12-06_22h25.27.159,ala-gemma-3-pairs,2023.2.3,59.57806812166584,2023-12-06 22h25.33.130955 +0000,
1,0,1,0,0,0,0,0,17,0,17,0,49.35050299999966,,,,,,,,,,,,,,,,,,,,,,,,,,,49.33770650000042,49.338524900000266,49.338562699999784,49.35050299999966,49.55012230000011,49.534719100000075,49.53474730000016,49.55012230000011,49.55012230000011,49.55012230000011,49.55012230000011,49.65169530000003,m,0.09083999999984371,None,49.65250339999966,49.65308509999977,49.65311060000022,49.6661479000004,49.93236530000013,49.90323840000019,49.90328649999992,valence,1,neutral,H.bmp,happy,R.bmp,sad,X.bmp,17,match3,sad,X.bmp,m,0.09083999999984371,1,49.90451699999994,,,,,,,,,,,924528,001,2023-12-06_22h25.27.159,ala-gemma-3-pairs,2023.2.3,59.57806812166584,2023-12-06 22h25.33.130955 +0000,
1,0,1,0,0,0,0,0,18,0,18,0,49.93236530000013,,,,,,,,,,,,,,,,,,,,,,,,,,,49.90595630000007,49.90713109999979,49.90718310000011,49.93236530000013,,50.11676220000027,50.11679350000031,50.14908120000018,50.14908120000018,50.14908120000018,50.14908120000018,50.16863790000025,m,0.01349839999966207,None,50.16979439999977,50.17053730000043,50.1705751999998,50.18237969999973,50.43336290000025,50.41825760000029,50.418307599999935,valence,1,neutral,H.bmp,happy,R.bmp,sad,X.bmp,18,mismatch,neutral,R.bmp,m,0.01349839999966207,0,50.41936970000006,,,,,,,,,,,924528,001,2023-12-06_22h25.27.159,ala-gemma-3-pairs,2023.2.3,59.57806812166584,2023-12-06 22h25.33.130955 +0000,
1,0,1,0,0,0,0,0,19,0,19,0,50.43336290000025,,,,,,,,,,,,,,,,,,,,,,,,,,,50.42076569999972,50.42180600000029,50.42185859999972,50.43336290000025,,50.63342879999982,50.63346949999959,50.66514180000013,50.66514180000013,50.66514180000013,50.66514180000013,50.717431099999885,m,0.045872000000599655,None,50.718401500000255,50.719109200000275,50.71914100000049,50.731431500000326,50.98192930000005,50.96621649999997,50.96625109999968,valence,1,neutral,H.bmp,happy,R.bmp,sad,X.bmp,19,match1,neutral,H.bmp,m,0.045872000000599655,1,50.96705800000018,,,,,,,,,,,924528,001,2023-12-06_22h25.27.159,ala-gemma-3-pairs,2023.2.3,59.57806812166584,2023-12-06 22h25.33.130955 +0000,
1,0,1,0,0,0,0,0,20,0,20,0,50.98192930000005,,,,,,,,,,,,,,,,,,,,,,,,,,,50.96803470000032,50.96883049999997,50.96886799999993,50.98192930000005,,51.18102269999963,51.18104190000031,51.197618299999704,51.197618299999704,51.197618299999704,51.197618299999704,51.2157758000003,m,0.008770299999923736,None,51.216629399999874,51.21718710000005,51.21721410000009,51.23081050000019,51.48202190000029,51.46630329999971,51.46640500000012,valence,1,neutral,H.bmp,happy,R.bmp,sad,X.bmp,20,mismatch,neutral,R.bmp,m,0.008770299999923736,0,51.46729669999968,,,,,,,,,,,924528,001,2023-12-06_22h25.27.159,ala-gemma-3-pairs,2023.2.3,59.57806812166584,2023-12-06 22h25.33.130955 +0000,
1,0,1,0,0,0,0,0,21,0,21,0,51.48202190000029,,,,,,,,,,,,,,,,,,,,,,,,,,,51.46841200000017,51.46924020000006,51.46928099999968,51.48202190000029,51.696829600000456,51.66833990000032,51.66839330000039,51.696829600000456,51.696829600000456,51.696829600000456,51.696829600000456,51.73134110000046,m,0.03032859999984794,None,51.73198179999963,51.73238219999985,51.732401899999786,51.746705999999904,51.99714760000006,51.98154030000023,51.98157210000045,valence,1,neutral,H.bmp,happy,R.bmp,sad,X.bmp,21,match1,neutral,H.bmp,m,0.03032859999984794,1,51.98232220000045,,,,,,,,,,,924528,001,2023-12-06_22h25.27.159,ala-gemma-3-pairs,2023.2.3,59.57806812166584,2023-12-06 22h25.33.130955 +0000,
1,0,1,0,0,0,0,0,22,0,22,0,51.99714760000006,,,,,,,,,,,,,,,,,,,,,,,,,,,51.9832064000002,51.98391960000026,51.9839535000001,51.99714760000006,52.19637419999981,52.18156429999999,52.181590700000015,52.19637419999981,52.19637419999981,52.19637419999981,52.19637419999981,52.247031400000196,m,0.03771379999943747,None,52.24766809999983,52.24807150000015,52.248091499999646,52.26264549999996,52.51285259999986,52.49690389999978,52.49692909999976,valence,1,neutral,H.bmp,happy,R.bmp,sad,X.bmp,22,match2,happy,R.bmp,m,0.03771379999943747,1,52.49752520000038,,,,,,,,,,,924528,001,2023-12-06_22h25.27.159,ala-gemma-3-pairs,2023.2.3,59.57806812166584,2023-12-06 22h25.33.130955 +0000,
1,0,1,0,0,0,0,0,23,0,23,0,52.51285259999986,,,,,,,,,,,,,,,,,,,,,,,,,,,52.49821880000036,52.498783600000024,52.49880899999971,52.51285259999986,52.72904879999987,52.70036400000026,52.70042029999968,52.72904879999987,52.72904879999987,52.72904879999987,52.72904879999987,52.781160999999884,m,0.05006279999997787,None,52.78207819999989,52.78267750000032,52.782706699999835,52.79559960000006,53.046816000000035,53.03123669999968,53.031278499999644,valence,1,neutral,H.bmp,happy,R.bmp,sad,X.bmp,23,mismatch,neutral,X.bmp,m,0.05006279999997787,0,53.032313100000465,,,,,,,,,,,924528,001,2023-12-06_22h25.27.159,ala-gemma-3-pairs,2023.2.3,59.57806812166584,2023-12-06 22h25.33.130955 +0000,
1,0,1,0,0,0,0,0,24,0,24,0,53.046816000000035,,,,,,,,,,,,,,,,,,,,,,,,,,,53.03350310000042,53.034305799999856,53.03435179999997,53.046816000000035,,53.24585829999978,53.24588479999966,53.261588100000154,53.261588100000154,53.261588100000154,53.261588100000154,53.27990150000005,m,0.015304900000046473,None,53.28050910000002,53.2809600999999,53.28097929999967,53.29462400000011,53.54475559999992,53.5285358000001,53.52856129999964,valence,1,neutral,H.bmp,happy,R.bmp,sad,X.bmp,24,match3,sad,X.bmp,m,0.015304900000046473,1,53.52918800000043,,,,,,,,,,,924528,001,2023-12-06_22h25.27.159,ala-gemma-3-pairs,2023.2.3,59.57806812166584,2023-12-06 22h25.33.130955 +0000,
1,0,1,0,0,0,0,0,25,0,25,0,53.54475559999992,,,,,,,,,,,,,,,,,,,,,,,,,,,53.52989570000045,53.530485999999655,53.53051250000044,53.54475559999992,53.76069650000045,53.73000460000003,53.73004589999982,53.76069650000045,53.76069650000045,53.76069650000045,53.76069650000045,53.8288435000004,m,0.05241739999928541,None,53.82954340000015,53.83001039999999,53.83003329999974,53.8439728000003,54.093508900000415,54.0784321000001,54.07845600000019,valence,1,neutral,H.bmp,happy,R.bmp,sad,X.bmp,25,mismatch,happy,H.bmp,m,0.05241739999928541,0,54.079004899999745,,,,,,,,,,,924528,001,2023-12-06_22h25.27.159,ala-gemma-3-pairs,2023.2.3,59.57806812166584,2023-12-06 22h25.33.130955 +0000,
1,0,1,0,0,0,0,0,26,0,26,0,54.093508900000415,,,,,,,,,,,,,,,,,,,,,,,,,,,54.07964939999965,54.080133399999795,54.080157399999734,54.093508900000415,54.29351899999983,54.27773679999973,54.27776069999982,54.29351899999983,54.29351899999983,54.29351899999983,54.29351899999983,54.3946348999998,n,0.08485419999942678,None,54.3953803000004,54.39596540000002,54.395988999999645,54.409966299999724,54.65983210000013,54.64455280000038,54.64458040000045,valence,1,neutral,H.bmp,happy,R.bmp,sad,X.bmp,26,match1,neutral,H.bmp,n,0.08485419999942678,0,54.645209799999975,,,,,,,,,,,924528,001,2023-12-06_22h25.27.159,ala-gemma-3-pairs,2023.2.3,59.57806812166584,2023-12-06 22h25.33.130955 +0000,
1,0,1,0,0,0,0,0,27,0,27,0,54.65983210000013,,,,,,,,,,,,,,,,,,,,,,,,,,,54.646027400000094,54.646620800000164,54.64664939999966,54.65983210000013,54.859461199999714,54.84439740000016,54.84442870000021,54.859461199999714,54.859461199999714,54.859461199999714,54.859461199999714,54.87684700000045,m,0.008926000000428758,None,54.87739309999961,54.87773780000043,54.87775440000041,54.89238519999981,,55.12791110000035,55.12798010000006,valence,1,neutral,H.bmp,happy,R.bmp,sad,X.bmp,27,mismatch,sad,H.bmp,m,0.008926000000428758,0,55.129253699999936,,,,,,,,,,,924528,001,2023-12-06_22h25.27.159,ala-gemma-3-pairs,2023.2.3,59.57806812166584,2023-12-06 22h25.33.130955 +0000,
1,0,1,0,0,0,0,0,28,0,28,0,55.14357319999999,,,,,,,,,,,,,,,,,,,,,,,,,,,55.13049370000044,55.131353099999615,55.131399599999895,55.14357319999999,,55.343936700000086,55.34396730000026,55.37522950000039,55.37522950000039,55.37522950000039,55.37522950000039,55.44348710000031,m,0.057518200000231445,None,55.44413110000005,55.444544300000416,55.44456439999976,55.45837709999978,55.709000699999706,55.69370119999985,55.693736199999876,valence,1,neutral,H.bmp,happy,R.bmp,sad,X.bmp,28,match2,happy,R.bmp,m,0.057518200000231445,1,55.69451719999961,,,,,,,,,,,924528,001,2023-12-06_22h25.27.159,ala-gemma-3-pairs,2023.2.3,59.57806812166584,2023-12-06 22h25.33.130955 +0000,
1,0,1,0,0,0,0,0,29,0,29,0,55.709000699999706,,,,,,,,,,,,,,,,,,,,,,,,,,,55.695525799999814,55.696234099999856,55.69627130000026,55.709000699999706,55.924432900000284,55.896292899999935,55.89635100000032,55.924432900000284,55.924432900000284,55.924432900000284,55.924432900000284,56.0258002999999,m,0.09198120000019117,None,56.026610199999595,56.02712369999972,56.0271487,56.041430899999796,56.29110390000005,56.275406400000065,56.275433599999815,valence,1,neutral,H.bmp,happy,R.bmp,sad,X.bmp,29,match2,happy,R.bmp,m,0.09198120000019117,1,56.276062799999636,,,,,,,,,,,924528,001,2023-12-06_22h25.27.159,ala-gemma-3-pairs,2023.2.3,59.57806812166584,2023-12-06 22h25.33.130955 +0000,
1,0,1,0,1,0,1,0,0,0,0,0,57.37261229999967,,,,,,,,,,,,,,,,,,,,,,,57.358410200000435,57.35884910000004,57.35886970000047,57.359354400000484,57.36024389999966,57.360671000000366,57.36069210000005,57.37261229999967,57.58905690000029,57.559526000000005,57.55957909999961,57.58905690000029,57.58905690000029,57.58905690000029,57.58905690000029,57.75751820000005,n,0.1612332000004244,None,57.75878759999978,57.759398500000316,57.759427300000425,57.772356800000125,58.022068399999625,58.00634499999978,58.00636769999983,valence,2,neutral,H.bmp,happy,R.bmp,sad,X.bmp,0,match1,neutral,H.bmp,n,0.1612332000004244,0,58.00689049999983,56.27624519999972,56.29110390000005,56.29110390000005,57.35748020000028,space,1.0542455999993763,None,,,,924528,001,2023-12-06_22h25.27.159,ala-gemma-3-pairs,2023.2.3,59.57806812166584,2023-12-06 22h25.33.130955 +0000,
1,0,1,0,1,0,1,0,1,0,1,0,58.022068399999625,,,,,,,,,,,,,,,,,,,,,,,,,,,58.007520699999986,58.00804010000047,58.00806509999984,58.022068399999625,58.22143919999962,58.20531959999971,58.20533880000039,58.22143919999962,58.22143919999962,58.22143919999962,58.22143919999962,58.32312879999972,n,0.0914585000000443,None,58.324088100000154,58.324697500000184,58.32472609999968,58.33811760000026,58.58864350000022,58.57437250000021,58.57442050000009,valence,2,neutral,H.bmp,happy,R.bmp,sad,X.bmp,1,mismatch,neutral,R.bmp,n,0.0914585000000443,1,58.57563399999981,,,,,,,,,,,924528,001,2023-12-06_22h25.27.159,ala-gemma-3-pairs,2023.2.3,59.57806812166584,2023-12-06 22h25.33.130955 +0000,
1,0,1,0,1,0,1,0,2,0,2,0,58.58864350000022,,,,,,,,,,,,,,,,,,,,,,,,,,,58.577070399999684,58.57810679999966,58.578158899999835,58.58864350000022,58.80382650000047,58.77398340000036,58.774025300000176,58.80382650000047,58.80382650000047,58.80382650000047,58.80382650000047,58.85511690000021,n,0.03760150000016438,None,58.85573269999986,58.85611830000016,58.856137099999614,58.8704230000003,59.1220229999999,59.10624040000039,59.10628009999982,valence,2,neutral,H.bmp,happy,R.bmp,sad,X.bmp,2,match3,sad,X.bmp,n,0.03760150000016438,0,59.10721829999966,,,,,,,,,,,924528,001,2023-12-06_22h25.27.159,ala-gemma-3-pairs,2023.2.3,59.57806812166584,2023-12-06 22h25.33.130955 +0000,
1,0,1,0,1,0,1,0,3,0,3,0,59.1220229999999,,,,,,,,,,,,,,,,,,,,,,,,,,,59.10829869999998,59.109111900000244,59.10916309999993,59.1220229999999,,59.320765200000096,59.32078890000048,59.33650690000013,59.33650690000013,59.33650690000013,59.33650690000013,59.38747669999975,n,0.03578029999971477,None,59.38804160000018,59.38840600000003,59.38842360000035,59.403001499999846,,59.64007099999981,59.640115199999855,valence,2,neutral,H.bmp,happy,R.bmp,sad,X.bmp,3,match3,sad,X.bmp,n,0.03578029999971477,0,59.64168090000021,,,,,,,,,,,924528,001,2023-12-06_22h25.27.159,ala-gemma-3-pairs,2023.2.3,59.57806812166584,2023-12-06 22h25.33.130955 +0000,
1,0,1,0,1,0,1,0,4,0,4,0,59.6550772999999,,,,,,,,,,,,,,,,,,,,,,,,,,,59.64302899999984,59.6441205000001,59.64417330000015,59.6550772999999,,59.85487160000048,59.85491749999983,59.886835500000416,59.886835500000416,59.886835500000416,59.886835500000416,60.00444619999962,m,0.11080179999953543,None,60.00522420000016,60.005728199999794,60.00575349999963,60.01987929999996,60.26953560000038,60.25351839999985,60.25354349999998,valence,2,neutral,H.bmp,happy,R.bmp,sad,X.bmp,4,mismatch,neutral,X.bmp,m,0.11080179999953543,0,60.254203399999824,,,,,,,,,,,924528,001,2023-12-06_22h25.27.159,ala-gemma-3-pairs,2023.2.3,59.57806812166584,2023-12-06 22h25.33.130955 +0000,
1,0,1,0,1,0,1,0,5,0,5,0,60.26953560000038,,,,,,,,,,,,,,,,,,,,,,,,,,,60.25491880000027,60.25580179999997,60.25582949999989,60.26953560000038,60.46954939999978,60.45403619999979,60.45406749999984,60.46954939999978,60.46954939999978,60.46954939999978,60.46954939999978,60.5202932000002,m,0.04356740000002901,None,60.52108560000033,60.52160400000048,60.52162920000046,60.535204599999815,60.78531430000021,60.770069799999874,60.77009999999973,valence,2,neutral,H.bmp,happy,R.bmp,sad,X.bmp,5,mismatch,neutral,R.bmp,m,0.04356740000002901,0,60.77091389999987,,,,,,,,,,,924528,001,2023-12-06_22h25.27.159,ala-gemma-3-pairs,2023.2.3,59.57806812166584,2023-12-06 22h25.33.130955 +0000,
1,0,1,0,1,0,1,0,6,0,6,0,60.78531430000021,,,,,,,,,,,,,,,,,,,,,,,,,,,60.77175100000022,60.772423000000344,60.77245419999963,60.78531430000021,60.98500419999982,60.96970710000005,60.96973059999982,60.98500419999982,60.98500419999982,60.98500419999982,60.98500419999982,61.00388819999989,m,0.012491999999838299,None,61.00484560000041,61.00555929999973,61.005591000000095,61.01985599999989,,61.26843759999974,61.268460700000105,valence,2,neutral,H.bmp,happy,R.bmp,sad,X.bmp,6,mismatch,happy,X.bmp,m,0.012491999999838299,0,61.26929099999961,,,,,,,,,,,924528,001,2023-12-06_22h25.27.159,ala-gemma-3-pairs,2023.2.3,59.57806812166584,2023-12-06 22h25.33.130955 +0000,
1,0,1,0,1,0,1,0,7,0,7,0,61.28440870000031,,,,,,,,,,,,,,,,,,,,,,,,,,,61.27003450000029,61.27073670000027,61.27076380000017,61.28440870000031,61.48466710000048,61.468824000000495,61.4688514999998,61.48466710000048,61.48466710000048,61.48466710000048,61.48466710000048,61.502012099999774,m,0.009621299999707844,None,61.502706899999794,61.50321080000049,61.50323380000009,61.51703480000015,61.767382900000484,61.75314619999972,61.753217600000426,valence,2,neutral,H.bmp,happy,R.bmp,sad,X.bmp,7,mismatch,happy,X.bmp,m,0.009621299999707844,0,61.754254700000274,,,,,,,,,,,924528,001,2023-12-06_22h25.27.159,ala-gemma-3-pairs,2023.2.3,59.57806812166584,2023-12-06 22h25.33.130955 +0000,
1,0,1,0,1,0,1,0,8,0,8,0,61.767382900000484,,,,,,,,,,,,,,,,,,,,,,,,,,,61.755467699999826,61.756422499999644,61.75648650000039,61.767382900000484,61.966734200000246,61.951211599999624,61.9512364000002,61.966734200000246,61.966734200000246,61.966734200000246,61.966734200000246,62.01744930000041,m,0.035524899999472836,None,62.018049500000416,62.01847610000004,62.01849529999981,62.03312619999997,62.283343899999636,62.2682248000001,62.26825960000042,valence,2,neutral,H.bmp,happy,R.bmp,sad,X.bmp,8,match3,sad,X.bmp,m,0.035524899999472836,1,62.26901120000002,,,,,,,,,,,924528,001,2023-12-06_22h25.27.159,ala-gemma-3-pairs,2023.2.3,59.57806812166584,2023-12-06 22h25.33.130955 +0000,
1,0,1,0,1,0,1,0,9,0,9,0,62.283343899999636,,,,,,,,,,,,,,,,,,,,,,,,,,,62.2699848000002,62.27075909999985,62.27079609999964,62.283343899999636,62.48343920000025,62.47028750000027,62.47034470000017,62.48343920000025,62.48343920000025,62.48343920000025,62.48343920000025,62.518013599999904,m,0.02459019999969314,None,62.51884960000007,62.519375599999876,62.51940240000022,62.53255040000022,62.78390959999979,62.7679349,62.767971399999624,valence,2,neutral,H.bmp,happy,R.bmp,sad,X.bmp,9,mismatch,sad,R.bmp,m,0.02459019999969314,0,62.768799800000124,,,,,,,,,,,924528,001,2023-12-06_22h25.27.159,ala-gemma-3-pairs,2023.2.3,59.57806812166584,2023-12-06 22h25.33.130955 +0000,
1,0,1,0,1,0,1,0,10,0,10,0,62.78390959999979,,,,,,,,,,,,,,,,,,,,,,,,,,,62.76978640000016,62.770522200000414,62.770559700000376,62.78390959999979,62.99858740000036,62.969206900000245,62.96926199999962,62.99858740000036,62.99858740000036,62.99858740000036,62.99858740000036,63.01684899999964,m,0.01397010000073351,None,63.01765630000045,63.01825069999995,63.01827609999964,63.03234340000017,63.28209100000004,63.266401800000494,63.26643320000039,valence,2,neutral,H.bmp,happy,R.bmp,sad,X.bmp,10,match2,happy,R.bmp,m,0.01397010000073351,1,63.26723670000047,,,,,,,,,,,924528,001,2023-12-06_22h25.27.159,ala-gemma-3-pairs,2023.2.3,59.57806812166584,2023-12-06 22h25.33.130955 +0000,
1,0,1,0,1,0,1,0,11,0,11,0,63.28209100000004,,,,,,,,,,,,,,,,,,,,,,,,,,,63.26811819999966,63.26881549999962,63.26884919999975,63.28209100000004,63.482358000000204,63.46695720000025,63.46698500000002,63.482358000000204,63.482358000000204,63.482358000000204,63.482358000000204,63.61560650000047,n,0.12675620000027266,None,63.61626530000012,63.61666719999994,63.6166874999999,63.630842499999744,63.881121399999756,63.86518940000042,63.86521350000021,valence,2,neutral,H.bmp,happy,R.bmp,sad,X.bmp,11,match2,happy,R.bmp,n,0.12675620000027266,0,63.86577109999962,,,,,,,,,,,924528,001,2023-12-06_22h25.27.159,ala-gemma-3-pairs,2023.2.3,59.57806812166584,2023-12-06 22h25.33.130955 +0000,
1,0,1,0,1,0,1,0,12,0,12,0,63.881121399999756,,,,,,,,,,,,,,,,,,,,,,,,,,,63.86643490000006,63.86693240000022,63.86695779999991,63.881121399999756,64.09690409999985,64.0661084000003,64.06614119999995,64.09690409999985,64.09690409999985,64.09690409999985,64.09690409999985,64.14822910000021,n,0.04628409999986616,None,64.14887929999986,64.14928680000048,64.14930710000044,64.1638638000004,64.41398320000008,64.39873179999995,64.39875709999978,valence,2,neutral,H.bmp,happy,R.bmp,sad,X.bmp,12,match1,neutral,H.bmp,n,0.04628409999986616,0,64.39935940000032,,,,,,,,,,,924528,001,2023-12-06_22h25.27.159,ala-gemma-3-pairs,2023.2.3,59.57806812166584,2023-12-06 22h25.33.130955 +0000,
1,0,1,0,1,0,1,0,13,0,13,0,64.41398320000008,,,,,,,,,,,,,,,,,,,,,,,,,,,64.40009009999994,64.40068410000003,64.40071129999978,64.41398320000008,64.61357769999995,64.59813010000016,64.59815630000048,64.61357769999995,64.61357769999995,64.61357769999995,64.61357769999995,64.64777000000049,n,0.023639200000616256,None,64.64842589999989,64.64884100000017,64.64886139999999,64.66284210000049,64.91258070000003,64.8975088999996,64.89753440000004,valence,2,neutral,H.bmp,happy,R.bmp,sad,X.bmp,13,mismatch,happy,H.bmp,n,0.023639200000616256,1,64.89829439999994,,,,,,,,,,,924528,001,2023-12-06_22h25.27.159,ala-gemma-3-pairs,2023.2.3,59.57806812166584,2023-12-06 22h25.33.130955 +0000,
1,0,1,0,1,0,1,0,14,0,14,0,64.91258070000003,,,,,,,,,,,,,,,,,,,,,,,,,,,64.89895100000012,64.89945799999987,64.89948259999983,64.91258070000003,65.11306880000029,65.09751020000022,65.09753530000035,65.11306880000029,65.11306880000029,65.11306880000029,65.11306880000029,65.19797269999981,n,0.07673780000004626,None,65.1989494999998,65.19956079999974,65.19959250000011,65.21286789999976,65.46273629999996,65.44739219999974,65.44743610000023,valence,2,neutral,H.bmp,happy,R.bmp,sad,X.bmp,14,match1,neutral,H.bmp,n,0.07673780000004626,0,65.44818940000005,,,,,,,,,,,924528,001,2023-12-06_22h25.27.159,ala-gemma-3-pairs,2023.2.3,59.57806812166584,2023-12-06 22h25.33.130955 +0000,
1,0,1,0,1,0,1,0,15,0,15,0,65.46273629999996,,,,,,,,,,,,,,,,,,,,,,,,,,,65.44908990000022,65.44983260000026,65.44986640000025,65.46273629999996,65.66284429999996,65.64760850000039,65.6476461000002,65.66284429999996,65.66284429999996,65.66284429999996,65.66284429999996,65.82967290000033,m,0.15192969999952766,None,65.83045510000011,65.8309704000003,65.83099579999998,65.8451656999996,66.0965140999997,66.0815663000003,66.08161259999997,valence,2,neutral,H.bmp,happy,R.bmp,sad,X.bmp,15,mismatch,neutral,X.bmp,m,0.15192969999952766,0,66.08268690000023,,,,,,,,,,,924528,001,2023-12-06_22h25.27.159,ala-gemma-3-pairs,2023.2.3,59.57806812166584,2023-12-06 22h25.33.130955 +0000,
1,0,1,0,1,0,1,0,16,0,16,0,66.0965140999997,,,,,,,,,,,,,,,,,,,,,,,,,,,66.08406259999992,66.0850577000001,66.08511120000003,66.0965140999997,,66.29533420000007,66.29536900000039,66.31117340000037,66.31117340000037,66.31117340000037,66.31117340000037,66.32912420000048,m,0.013522799999918789,None,66.32976169999984,66.33016459999999,66.3301849999998,66.34424380000019,66.59476739999991,66.58041959999991,66.58046370000011,valence,2,neutral,H.bmp,happy,R.bmp,sad,X.bmp,16,match1,neutral,H.bmp,m,0.013522799999918789,1,66.58150079999996,,,,,,,,,,,924528,001,2023-12-06_22h25.27.159,ala-gemma-3-pairs,2023.2.3,59.57806812166584,2023-12-06 22h25.33.130955 +0000,
1,0,1,0,1,0,1,0,17,0,17,0,66.59476739999991,,,,,,,,,,,,,,,,,,,,,,,,,,,66.58273139999983,66.58371210000041,66.58375820000037,66.59476739999991,66.81036839999979,66.78089980000004,66.78095399999984,66.81036839999979,66.81036839999979,66.81036839999979,66.81036839999979,66.89489729999968,m,0.07900260000042181,None,66.89565080000011,66.89613740000004,66.89616089999981,66.91056579999986,67.16035019999981,67.14462699999967,67.14465440000004,valence,2,neutral,H.bmp,happy,R.bmp,sad,X.bmp,17,mismatch,neutral,X.bmp,m,0.07900260000042181,0,67.14531129999978,,,,,,,,,,,924528,001,2023-12-06_22h25.27.159,ala-gemma-3-pairs,2023.2.3,59.57806812166584,2023-12-06 22h25.33.130955 +0000,
1,0,1,0,1,0,1,0,18,0,18,0,67.16035019999981,,,,,,,,,,,,,,,,,,,,,,,,,,,67.14608690000023,67.14669409999988,67.14672400000018,67.16035019999981,67.37654569999995,67.34484450000036,67.34487379999973,67.37654569999995,67.37654569999995,67.37654569999995,67.37654569999995,67.44400649999989,m,0.06558539999969071,None,67.44469949999984,67.44517319999977,67.44519539999965,67.45923130000028,67.70895420000033,67.69466190000003,67.69469360000039,valence,2,neutral,H.bmp,happy,R.bmp,sad,X.bmp,18,match2,happy,R.bmp,m,0.06558539999969071,1,67.69548980000036,,,,,,,,,,,924528,001,2023-12-06_22h25.27.159,ala-gemma-3-pairs,2023.2.3,59.57806812166584,2023-12-06 22h25.33.130955 +0000,
1,0,1,0,1,0,1,0,19,0,19,0,67.70895420000033,,,,,,,,,,,,,,,,,,,,,,,,,,,67.69620570000006,67.69671970000036,67.69674510000004,67.70895420000033,67.90881330000047,67.89278209999975,67.89280169999984,67.90881330000047,67.90881330000047,67.90881330000047,67.90881330000047,68.00962760000039,m,0.086643799999365,None,68.01026900000033,68.01073009999982,68.01075000000037,68.02532820000033,68.27539770000021,68.25945580000007,68.25948309999967,valence,2,neutral,H.bmp,happy,R.bmp,sad,X.bmp,19,match2,happy,R.bmp,m,0.086643799999365,1,68.26013010000042,,,,,,,,,,,924528,001,2023-12-06_22h25.27.159,ala-gemma-3-pairs,2023.2.3,59.57806812166584,2023-12-06 22h25.33.130955 +0000,
1,0,1,0,1,0,1,0,20,0,20,0,68.27539770000021,,,,,,,,,,,,,,,,,,,,,,,,,,,68.2608739999996,68.26144910000039,68.26147769999989,68.27539770000021,68.47551579999981,68.4597875999998,68.45981540000048,68.47551579999981,68.47551579999981,68.47551579999981,68.47551579999981,68.59225179999976,n,0.10648140000012063,None,68.59289249999983,68.59329239999988,68.59331250000014,68.60808139999972,68.85745940000015,68.84264410000014,68.84267129999989,valence,2,neutral,H.bmp,happy,R.bmp,sad,X.bmp,20,match3,sad,X.bmp,n,0.10648140000012063,0,68.8433587999998,,,,,,,,,,,924528,001,2023-12-06_22h25.27.159,ala-gemma-3-pairs,2023.2.3,59.57806812166584,2023-12-06 22h25.33.130955 +0000,
1,0,1,0,1,0,1,0,21,0,21,0,68.85745940000015,,,,,,,,,,,,,,,,,,,,,,,,,,,68.84414050000032,68.84472759999971,68.84475730000031,68.85745940000015,69.05805520000013,69.04266730000018,69.04270019999967,69.05805520000013,69.05805520000013,69.05805520000013,69.05805520000013,69.07528430000002,m,0.015076499999850057,None,69.07590679999976,69.07637590000013,69.07639629999994,69.09053670000048,69.34111500000017,69.32543030000033,69.32545699999991,valence,2,neutral,H.bmp,happy,R.bmp,sad,X.bmp,21,mismatch,sad,H.bmp,m,0.015076499999850057,0,69.32608049999999,,,,,,,,,,,924528,001,2023-12-06_22h25.27.159,ala-gemma-3-pairs,2023.2.3,59.57806812166584,2023-12-06 22h25.33.130955 +0000,
1,0,1,0,1,0,1,0,22,0,22,0,69.34111500000017,,,,,,,,,,,,,,,,,,,,,,,,,,,69.32682449999993,69.32740509999985,69.32743440000013,69.34111500000017,69.55689119999988,69.52695769999991,69.52701239999988,69.55689119999988,69.55689119999988,69.55689119999988,69.55689119999988,69.59130129999994,n,0.01976230000036594,None,69.5919372999997,69.59235090000038,69.59237120000034,69.60652050000044,69.8574735000002,69.84200179999971,69.84204380000028,valence,2,neutral,H.bmp,happy,R.bmp,sad,X.bmp,22,mismatch,neutral,R.bmp,n,0.01976230000036594,1,69.84301090000008,,,,,,,,,,,924528,001,2023-12-06_22h25.27.159,ala-gemma-3-pairs,2023.2.3,59.57806812166584,2023-12-06 22h25.33.130955 +0000,
1,0,1,0,1,0,1,0,23,0,23,0,69.8574735000002,,,,,,,,,,,,,,,,,,,,,,,,,,,69.84420399999999,69.84510330000012,69.84514880000006,69.8574735000002,70.07289949999995,70.04118449999987,70.04121610000038,70.07289949999995,70.07289949999995,70.07289949999995,70.07289949999995,70.15873680000004,n,0.07761229999960051,None,70.1598739000001,70.16069460000017,70.16073099999994,70.17293140000038,70.42212310000014,70.40651049999997,70.4065300000002,valence,2,neutral,H.bmp,happy,R.bmp,sad,X.bmp,23,mismatch,happy,X.bmp,n,0.07761229999960051,1,70.40700649999962,,,,,,,,,,,924528,001,2023-12-06_22h25.27.159,ala-gemma-3-pairs,2023.2.3,59.57806812166584,2023-12-06 22h25.33.130955 +0000,
1,0,1,0,1,0,1,0,24,0,24,0,70.42212310000014,,,,,,,,,,,,,,,,,,,,,,,,,,,70.40756909999982,70.40795679999974,70.4079756000001,70.42212310000014,70.6222160999996,70.60656310000013,70.60658859999967,70.6222160999996,70.6222160999996,70.6222160999996,70.6222160999996,70.80637550000029,n,0.1815323000000717,None,70.80715909999981,70.8076731000001,70.80769839999994,70.82176069999969,71.07161470000028,71.05608649999976,71.05611380000028,valence,2,neutral,H.bmp,happy,R.bmp,sad,X.bmp,24,mismatch,sad,R.bmp,n,0.1815323000000717,1,71.05673120000029,,,,,,,,,,,924528,001,2023-12-06_22h25.27.159,ala-gemma-3-pairs,2023.2.3,59.57806812166584,2023-12-06 22h25.33.130955 +0000,
1,0,1,0,1,0,1,0,25,0,25,0,71.07161470000028,,,,,,,,,,,,,,,,,,,,,,,,,,,71.05748109999968,71.05808690000049,71.05811569999969,71.07161470000028,71.28799280000021,71.25764530000015,71.25768760000028,71.28799280000021,71.28799280000021,71.28799280000021,71.28799280000021,71.48845580000034,n,0.1924237000002904,None,71.48885940000036,71.48911969999972,71.4891303000004,71.5042655999996,,71.74012849999963,71.74019769999995,valence,2,neutral,H.bmp,happy,R.bmp,sad,X.bmp,25,mismatch,sad,H.bmp,n,0.1924237000002904,1,71.74165720000019,,,,,,,,,,,924528,001,2023-12-06_22h25.27.159,ala-gemma-3-pairs,2023.2.3,59.57806812166584,2023-12-06 22h25.33.130955 +0000,
1,0,1,0,1,0,1,0,26,0,26,0,71.75480049999987,,,,,,,,,,,,,,,,,,,,,,,,,,,71.74324140000044,71.74442699999963,71.74448990000019,71.75480049999987,71.96996790000048,71.94025469999997,71.9402898999997,71.96996790000048,71.96996790000048,71.96996790000048,71.96996790000048,72.10468219999984,m,0.12316120000014052,None,72.10538759999963,72.10585850000007,72.10588100000041,72.11983549999968,72.36999540000033,72.35490190000019,72.35492909999994,valence,2,neutral,H.bmp,happy,R.bmp,sad,X.bmp,26,match1,neutral,H.bmp,m,0.12316120000014052,1,72.35568799999965,,,,,,,,,,,924528,001,2023-12-06_22h25.27.159,ala-gemma-3-pairs,2023.2.3,59.57806812166584,2023-12-06 22h25.33.130955 +0000,
1,0,1,0,1,0,1,0,27,0,27,0,72.36999540000033,,,,,,,,,,,,,,,,,,,,,,,,,,,72.3564623000002,72.3570910999997,72.35711970000011,72.36999540000033,72.56975799999964,72.55420299999969,72.55423169999995,72.56975799999964,72.56975799999964,72.56975799999964,72.56975799999964,72.68798489999972,n,0.11678229999961331,None,72.68903380000029,72.6897184999998,72.6897525000004,72.70382380000046,,72.9535593999999,72.95358690000012,valence,2,neutral,H.bmp,happy,R.bmp,sad,X.bmp,27,mismatch,neutral,R.bmp,n,0.11678229999961331,1,72.95479479999995,,,,,,,,,,,924528,001,2023-12-06_22h25.27.159,ala-gemma-3-pairs,2023.2.3,59.57806812166584,2023-12-06 22h25.33.130955 +0000,
1,0,1,0,1,0,1,0,28,0,28,0,72.96986910000032,,,,,,,,,,,,,,,,,,,,,,,,,,,72.95574889999989,72.95647350000036,72.9565107999997,72.96986910000032,73.1850617,73.15503040000021,73.15506699999969,73.1850617,73.1850617,73.1850617,73.1850617,73.26946239999961,m,0.07530410000072152,None,73.27009759999964,73.27050260000033,73.27052269999967,73.28507960000024,73.5352296000001,73.51954079999996,73.51956859999973,valence,2,neutral,H.bmp,happy,R.bmp,sad,X.bmp,28,match3,sad,X.bmp,m,0.07530410000072152,1,73.52018789999966,,,,,,,,,,,924528,001,2023-12-06_22h25.27.159,ala-gemma-3-pairs,2023.2.3,59.57806812166584,2023-12-06 22h25.33.130955 +0000,
1,0,1,0,1,0,1,0,29,0,29,0,73.5352296000001,,,,,,,,,,,,,,,,,,,,,,,,,,,73.5209576999996,73.52154020000035,73.52156960000048,73.5352296000001,73.7345148000004,73.71884950000003,73.7188699999997,73.7345148000004,73.7345148000004,73.7345148000004,73.7345148000004,73.7524868999999,n,0.01574739999978192,None,73.75312360000044,73.75350119999985,73.75352159999966,73.76760389999981,74.03384600000027,74.00218210000003,74.00220780000018,valence,2,neutral,H.bmp,happy,R.bmp,sad,X.bmp,29,match2,happy,R.bmp,n,0.01574739999978192,0,74.00278660000004,,,,,,,,,,,924528,001,2023-12-06_22h25.27.159,ala-gemma-3-pairs,2023.2.3,59.57806812166584,2023-12-06 22h25.33.130955 +0000,
2,0,2,0,0,0,0,0,0,0,0,0,75.13249780000024,,,,,,74.00362430000041,74.00424019999991,74.00426419999985,74.03384600000027,74.03384600000027,74.03384600000027,74.03384600000027,74.03384600000027,74.03384600000027,74.03384600000027,74.03384600000027,75.11702739999964,space,1.079305000000204,None,75.11744259999978,75.11785729999974,75.1186875000003,75.11911510000027,75.11913400000049,75.11955149999994,75.1203046999999,75.12077769999996,75.12079679999988,75.13249780000024,75.34913570000026,75.31781589999991,75.31785240000045,75.34913570000026,75.34913570000026,75.34913570000026,75.34913570000026,75.43496159999995,n,0.0691501999999673,None,75.43651210000007,75.43720360000043,75.43723890000001,75.44957599999998,75.700425,75.68435700000009,75.68438950000018,control,1,sky,S.bmp,earth,C.bmp,air,T.bmp,0,mismatch,earth,T.bmp,n,0.0691501999999673,1,75.68514400000004,74.00295310000001,,,74.0030157000001,None,,,,,,924528,001,2023-12-06_22h25.27.159,ala-gemma-3-pairs,2023.2.3,59.57806812166584,2023-12-06 22h25.33.130955 +0000,
2,0,2,0,0,0,0,0,1,0,1,0,75.700425,,,,,,,,,,,,,,,,,,,,,,,,,,,75.68603379999968,75.68674740000006,75.68678090000049,75.700425,75.91470579999987,75.88507469999968,75.88511560000006,75.91470579999987,75.91470579999987,75.91470579999987,75.91470579999987,75.93282220000037,n,0.0014863999995213817,None,75.93343069999992,75.93382240000028,75.93384140000035,75.94824140000037,76.1983296999997,76.18280839999989,76.18283539999993,control,1,sky,S.bmp,earth,C.bmp,air,T.bmp,1,match3,air,T.bmp,n,0.0014863999995213817,0,76.18346959999963,,,,,,,,,,,924528,001,2023-12-06_22h25.27.159,ala-gemma-3-pairs,2023.2.3,59.57806812166584,2023-12-06 22h25.33.130955 +0000,
2,0,2,0,0,0,0,0,2,0,2,0,76.1983296999997,,,,,,,,,,,,,,,,,,,,,,,,,,,76.18422929999997,76.18492100000003,76.18494980000014,76.1983296999997,76.39806190000036,76.38137410000036,76.38139190000038,76.39806190000036,76.39806190000036,76.39806190000036,76.39806190000036,76.46593819999998,n,0.054392600000028324,None,76.46667059999982,76.4671599000003,76.46718229999988,76.48120720000043,76.7316864000004,76.71604279999974,76.71607320000021,control,1,sky,S.bmp,earth,C.bmp,air,T.bmp,2,match2,earth,C.bmp,n,0.054392600000028324,0,76.7167902000001,,,,,,,,,,,924528,001,2023-12-06_22h25.27.159,ala-gemma-3-pairs,2023.2.3,59.57806812166584,2023-12-06 22h25.33.130955 +0000,
2,0,2,0,0,0,0,0,3,0,3,0,76.7316864000004,,,,,,,,,,,,,,,,,,,,,,,,,,,76.71761419999984,76.71829359999992,76.71832449999965,76.7316864000004,76.93121659999997,76.91591750000043,76.9159423000001,76.93121659999997,76.93121659999997,76.93121659999997,76.93121659999997,76.9661589999996,n,0.02635740000005171,None,76.96726180000041,76.9679143000003,76.9679501999999,76.98087010000017,77.23169190000044,77.21593089999988,77.21596990000035,control,1,sky,S.bmp,earth,C.bmp,air,T.bmp,3,match1,sky,S.bmp,n,0.02635740000005171,0,77.21691139999984,,,,,,,,,,,924528,001,2023-12-06_22h25.27.159,ala-gemma-3-pairs,2023.2.3,59.57806812166584,2023-12-06 22h25.33.130955 +0000,
2,0,2,0,0,0,0,0,4,0,4,0,77.23169190000044,,,,,,,,,,,,,,,,,,,,,,,,,,,77.21797810000044,77.2188384000001,77.21887919999972,77.23169190000044,,77.4297803999998,77.42979769999965,77.44669169999997,77.44669169999997,77.44669169999997,77.44669169999997,77.5473721999997,m,0.09912179999992077,None,77.54803210000046,77.5484378000001,77.54845819999991,77.56275449999976,77.81345489999967,77.79966599999989,77.79970820000017,control,1,sky,S.bmp,earth,C.bmp,air,T.bmp,4,mismatch,earth,S.bmp,m,0.09912179999992077,0,77.80070239999986,,,,,,,,,,,924528,001,2023-12-06_22h25.27.159,ala-gemma-3-pairs,2023.2.3,59.57806812166584,2023-12-06 22h25.33.130955 +0000,
2,0,2,0,0,0,0,0,5,0,5,0,77.81345489999967,,,,,,,,,,,,,,,,,,,,,,,,,,,77.8019218999998,77.80263490000016,77.80266540000048,77.81345489999967,,78.01327610000044,78.0133009000001,78.02896599999985,78.02896599999985,78.02896599999985,78.02896599999985,78.06356529999994,m,0.0327556000002005,None,78.06432779999977,78.06481650000023,78.06484030000047,78.07867259999966,78.3292351,78.31312069999967,78.31314810000003,control,1,sky,S.bmp,earth,C.bmp,air,T.bmp,5,mismatch,earth,S.bmp,m,0.0327556000002005,0,78.31388169999991,,,,,,,,,,,924528,001,2023-12-06_22h25.27.159,ala-gemma-3-pairs,2023.2.3,59.57806812166584,2023-12-06 22h25.33.130955 +0000,
2,0,2,0,0,0,0,0,6,0,6,0,78.3292351,,,,,,,,,,,,,,,,,,,,,,,,,,,78.31464070000038,78.31524629999967,78.31527509999978,78.3292351,,78.5283644000001,78.52838210000027,78.54467569999997,78.54467569999997,78.54467569999997,78.54467569999997,78.68011050000041,n,0.1246872000001531,None,78.68114909999986,78.68177780000042,78.68181230000027,78.6950052000002,78.94457719999991,78.92870610000045,78.92874519999987,control,1,sky,S.bmp,earth,C.bmp,air,T.bmp,6,match2,earth,C.bmp,n,0.1246872000001531,0,78.92936629999986,,,,,,,,,,,924528,001,2023-12-06_22h25.27.159,ala-gemma-3-pairs,2023.2.3,59.57806812166584,2023-12-06 22h25.33.130955 +0000,
2,0,2,0,0,0,0,0,7,0,7,0,78.94457719999991,,,,,,,,,,,,,,,,,,,,,,,,,,,78.93012809999982,78.93072920000031,78.93075779999981,78.94457719999991,79.16086199999972,79.12959769999998,79.12963659999969,79.16086199999972,79.16086199999972,79.16086199999972,79.16086199999972,79.24669679999988,m,0.07385160000012547,None,79.24779300000046,79.24849129999984,79.24852540000029,79.26077850000001,79.51099590000013,79.49578810000003,79.49581980000039,control,1,sky,S.bmp,earth,C.bmp,air,T.bmp,7,mismatch,sky,T.bmp,m,0.07385160000012547,0,79.49657990000014,,,,,,,,,,,924528,001,2023-12-06_22h25.27.159,ala-gemma-3-pairs,2023.2.3,59.57806812166584,2023-12-06 22h25.33.130955 +0000,
2,0,2,0,0,0,0,0,8,0,8,0,79.51099590000013,,,,,,,,,,,,,,,,,,,,,,,,,,,79.49746919999961,79.4981373999999,79.49817020000046,79.51099590000013,79.72621900000013,79.69638940000004,79.69643240000005,79.72621900000013,79.72621900000013,79.72621900000013,79.72621900000013,79.74482770000031,m,0.008738900000025751,None,79.74551750000046,79.74603260000004,79.74605510000038,79.75971060000029,80.01034749999963,79.99467600000025,79.99470420000034,control,1,sky,S.bmp,earth,C.bmp,air,T.bmp,8,mismatch,earth,S.bmp,m,0.008738900000025751,0,79.99537620000046,,,,,,,,,,,924528,001,2023-12-06_22h25.27.159,ala-gemma-3-pairs,2023.2.3,59.57806812166584,2023-12-06 22h25.33.130955 +0000,
2,0,2,0,0,0,0,0,9,0,9,0,80.01034749999963,,,,,,,,,,,,,,,,,,,,,,,,,,,79.99618240000018,79.99689209999997,79.99692589999995,80.01034749999963,80.20989710000049,80.19451110000045,80.19453809999959,80.20989710000049,80.20989710000049,80.20989710000049,80.20989710000049,80.2610053999997,m,0.0496302999999898,None,80.26171049999994,80.2622406999999,80.26226289999977,80.27564520000033,80.52693499999987,80.51256620000004,80.51260410000032,control,1,sky,S.bmp,earth,C.bmp,air,T.bmp,9,mismatch,sky,C.bmp,m,0.0496302999999898,0,80.5135465000003,,,,,,,,,,,924528,001,2023-12-06_22h25.27.159,ala-gemma-3-pairs,2023.2.3,59.57806812166584,2023-12-06 22h25.33.130955 +0000,
2,0,2,0,0,0,0,0,10,0,10,0,80.52693499999987,,,,,,,,,,,,,,,,,,,,,,,,,,,80.51458850000017,80.51544269999977,80.51548300000013,80.52693499999987,80.74178940000002,80.71076520000042,80.71079710000049,80.74178940000002,80.74178940000002,80.74178940000002,80.74178940000002,80.76086099999975,m,0.005470999999488413,None,80.76181059999999,80.76245759999983,80.7624891000005,80.77555759999996,81.02507690000039,81.00983730000007,81.0098625999999,control,1,sky,S.bmp,earth,C.bmp,air,T.bmp,10,match3,air,T.bmp,m,0.005470999999488413,1,81.01054750000003,,,,,,,,,,,924528,001,2023-12-06_22h25.27.159,ala-gemma-3-pairs,2023.2.3,59.57806812166584,2023-12-06 22h25.33.130955 +0000,
2,0,2,0,0,0,0,0,11,0,11,0,81.02507690000039,,,,,,,,,,,,,,,,,,,,,,,,,,,81.0112422000002,81.01183330000003,81.01185859999987,81.02507690000039,81.24193209999976,81.21227799999997,81.21232450000025,81.24193209999976,81.24193209999976,81.24193209999976,81.24193209999976,81.34272469999996,n,0.09322500000052969,None,81.34350269999959,81.34399880000001,81.34402469999986,81.35819309999988,81.60798429999977,81.5929683000004,81.59300319999966,control,1,sky,S.bmp,earth,C.bmp,air,T.bmp,11,match3,air,T.bmp,n,0.09322500000052969,0,81.5938514999998,,,,,,,,,,,924528,001,2023-12-06_22h25.27.159,ala-gemma-3-pairs,2023.2.3,59.57806812166584,2023-12-06 22h25.33.130955 +0000,
2,0,2,0,0,0,0,0,12,0,12,0,81.60798429999977,,,,,,,,,,,,,,,,,,,,,,,,,,,81.59481849999975,81.59557270000005,81.5956100000003,81.60798429999977,81.82429150000007,81.79453910000029,81.79458840000007,81.82429150000007,81.82429150000007,81.82429150000007,81.82429150000007,81.84273510000003,n,0.015503499999795167,None,81.84352779999972,81.8440400999998,81.84406529999978,81.85743910000019,82.10699360000035,82.09191900000042,82.0919471999996,control,1,sky,S.bmp,earth,C.bmp,air,T.bmp,12,match3,air,T.bmp,n,0.015503499999795167,0,82.0926313,,,,,,,,,,,924528,001,2023-12-06_22h25.27.159,ala-gemma-3-pairs,2023.2.3,59.57806812166584,2023-12-06 22h25.33.130955 +0000,
2,0,2,0,0,0,0,0,13,0,13,0,82.10699360000035,,,,,,,,,,,,,,,,,,,,,,,,,,,82.09339460000047,82.09400629999982,82.09403550000025,82.10699360000035,82.30653929999971,82.29051900000013,82.29053920000024,82.30653929999971,82.30653929999971,82.30653929999971,82.30653929999971,82.40787730000011,m,0.08859550000033778,None,82.40850390000014,82.40891019999981,82.40893039999992,82.42292290000023,82.67345949999981,82.65755720000016,82.6575899999998,control,1,sky,S.bmp,earth,C.bmp,air,T.bmp,13,mismatch,air,C.bmp,m,0.08859550000033778,0,82.65833889999976,,,,,,,,,,,924528,001,2023-12-06_22h25.27.159,ala-gemma-3-pairs,2023.2.3,59.57806812166584,2023-12-06 22h25.33.130955 +0000,
2,0,2,0,0,0,0,0,14,0,14,0,82.67345949999981,,,,,,,,,,,,,,,,,,,,,,,,,,,82.65924679999989,82.66005760000007,82.66009190000022,82.67345949999981,82.87305149999975,82.85703040000044,82.85705469999994,82.87305149999975,82.87305149999975,82.87305149999975,82.87305149999975,82.89075140000023,m,0.014249899999413174,None,82.89152579999973,82.89209709999977,82.8921221999999,82.90563949999978,83.1555502000001,83.13967839999987,83.13969950000046,control,1,sky,S.bmp,earth,C.bmp,air,T.bmp,14,mismatch,air,C.bmp,m,0.014249899999413174,0,83.14017249999961,,,,,,,,,,,924528,001,2023-12-06_22h25.27.159,ala-gemma-3-pairs,2023.2.3,59.57806812166584,2023-12-06 22h25.33.130955 +0000,
2,0,2,0,0,0,0,0,15,0,15,0,83.1555502000001,,,,,,,,,,,,,,,,,,,,,,,,,,,83.14074290000008,83.14120770000045,83.14122860000043,83.1555502000001,83.35535270000037,83.34077239999988,83.34080679999988,83.35535270000037,83.35535270000037,83.35535270000037,83.35535270000037,83.40636840000025,m,0.04337469999973109,None,83.4069313,83.40728310000031,83.40730069999972,83.42194290000043,83.67286729999978,83.6574614000001,83.65749030000006,control,1,sky,S.bmp,earth,C.bmp,air,T.bmp,15,mismatch,sky,T.bmp,m,0.04337469999973109,0,83.65819399999964,,,,,,,,,,,924528,001,2023-12-06_22h25.27.159,ala-gemma-3-pairs,2023.2.3,59.57806812166584,2023-12-06 22h25.33.130955 +0000,
2,0,2,0,0,0,0,0,16,0,16,0,83.67286729999978,,,,,,,,,,,,,,,,,,,,,,,,,,,83.65899220000028,83.6596983999998,83.65972940000029,83.67286729999978,,83.87159369999972,83.87161480000032,83.88788899999963,83.88788899999963,83.88788899999963,83.88788899999963,83.9056843999997,m,0.01033499999994092,None,83.9063028999999,83.90674880000006,83.90676809999968,83.92077289999997,84.17123079999965,84.15548820000004,84.1555086999997,control,1,sky,S.bmp,earth,C.bmp,air,T.bmp,16,match1,sky,S.bmp,m,0.01033499999994092,1,84.15610560000005,,,,,,,,,,,924528,001,2023-12-06_22h25.27.159,ala-gemma-3-pairs,2023.2.3,59.57806812166584,2023-12-06 22h25.33.130955 +0000,
2,0,2,0,0,0,0,0,17,0,17,0,84.17123079999965,,,,,,,,,,,,,,,,,,,,,,,,,,,84.15667510000003,84.15713620000042,84.15715770000043,84.17123079999965,84.38733179999963,84.3561665999996,84.35619550000047,84.38733179999963,84.38733179999963,84.38733179999963,84.38733179999963,84.40574300000026,m,0.01691469999968831,None,84.40624620000017,84.40654480000012,84.40655919999972,84.42115970000032,84.67166129999987,84.65572380000049,84.65575489999992,control,1,sky,S.bmp,earth,C.bmp,air,T.bmp,17,mismatch,air,S.bmp,m,0.01691469999968831,0,84.65650579999965,,,,,,,,,,,924528,001,2023-12-06_22h25.27.159,ala-gemma-3-pairs,2023.2.3,59.57806812166584,2023-12-06 22h25.33.130955 +0000,
2,0,2,0,0,0,0,0,18,0,18,0,84.67166129999987,,,,,,,,,,,,,,,,,,,,,,,,,,,84.65738859999965,84.658144,84.65817789999983,84.67166129999987,84.87010250000003,84.8558791000005,84.85591449999993,84.87010250000003,84.87010250000003,84.87010250000003,84.87010250000003,84.95414580000033,m,0.07797889999983454,None,84.95478079999975,84.9551935999998,84.95521370000006,84.96988030000011,85.22003899999982,85.20373870000003,85.20375940000031,control,1,sky,S.bmp,earth,C.bmp,air,T.bmp,18,mismatch,earth,T.bmp,m,0.07797889999983454,0,85.20421859999988,,,,,,,,,,,924528,001,2023-12-06_22h25.27.159,ala-gemma-3-pairs,2023.2.3,59.57806812166584,2023-12-06 22h25.33.130955 +0000,
2,0,2,0,0,0,0,0,19,0,19,0,85.22003899999982,,,,,,,,,,,,,,,,,,,,,,,,,,,85.20492060000015,85.20546840000043,85.20548919999965,85.22003899999982,85.41929859999982,85.40531170000031,85.40534019999996,85.41929859999982,85.41929859999982,85.41929859999982,85.41929859999982,85.47014049999962,m,0.04908900000009453,None,85.4707484999999,85.47112819999984,85.47114750000037,85.48571489999995,85.73655010000039,85.72207160000016,85.72210780000023,control,1,sky,S.bmp,earth,C.bmp,air,T.bmp,19,match2,earth,C.bmp,m,0.04908900000009453,1,85.7230040000004,,,,,,,,,,,924528,001,2023-12-06_22h25.27.159,ala-gemma-3-pairs,2023.2.3,59.57806812166584,2023-12-06 22h25.33.130955 +0000,
2,0,2,0,0,0,0,0,20,0,20,0,85.73655010000039,,,,,,,,,,,,,,,,,,,,,,,,,,,85.72406109999974,85.7249627000001,85.72500339999988,85.73655010000039,85.93589049999991,85.9201906999997,85.92021720000048,85.93589049999991,85.93589049999991,85.93589049999991,85.93589049999991,86.00376800000049,m,0.060051100000237057,None,86.00473940000029,86.0053799999996,86.00541169999997,86.01878959999976,86.26797710000028,86.25293990000046,86.25296979999985,control,1,sky,S.bmp,earth,C.bmp,air,T.bmp,20,match1,sky,S.bmp,m,0.060051100000237057,1,86.25366539999959,,,,,,,,,,,924528,001,2023-12-06_22h25.27.159,ala-gemma-3-pairs,2023.2.3,59.57806812166584,2023-12-06 22h25.33.130955 +0000,
2,0,2,0,0,0,0,0,21,0,21,0,86.26797710000028,,,,,,,,,,,,,,,,,,,,,,,,,,,86.25448649999998,86.25506940000014,86.25510060000033,86.26797710000028,86.46777360000033,86.4520322999997,86.45205520000036,86.46777360000033,86.46777360000033,86.46777360000033,86.46777360000033,86.70170580000013,n,0.22385119999944436,None,86.70226400000047,86.70258339999964,86.7026007000004,86.71721350000007,86.96731309999996,86.95189699999992,86.95193560000007,control,1,sky,S.bmp,earth,C.bmp,air,T.bmp,21,match2,earth,C.bmp,n,0.22385119999944436,0,86.95258360000025,,,,,,,,,,,924528,001,2023-12-06_22h25.27.159,ala-gemma-3-pairs,2023.2.3,59.57806812166584,2023-12-06 22h25.33.130955 +0000,
2,0,2,0,0,0,0,0,22,0,22,0,86.96731309999996,,,,,,,,,,,,,,,,,,,,,,,,,,,86.95336390000011,86.9540122999997,86.95404140000028,86.96731309999996,87.18391150000025,87.15187260000039,87.15190760000041,87.18391150000025,87.18391150000025,87.18391150000025,87.18391150000025,87.2351550000003,n,0.043109000000185915,None,87.2358379999996,87.23627149999993,87.23629340000025,87.25006819999999,87.50091450000036,87.48579059999975,87.48582929999975,control,1,sky,S.bmp,earth,C.bmp,air,T.bmp,22,mismatch,air,C.bmp,n,0.043109000000185915,1,87.48675569999978,,,,,,,,,,,924528,001,2023-12-06_22h25.27.159,ala-gemma-3-pairs,2023.2.3,59.57806812166584,2023-12-06 22h25.33.130955 +0000,
2,0,2,0,0,0,0,0,23,0,23,0,87.50091450000036,,,,,,,,,,,,,,,,,,,,,,,,,,,87.48784669999986,87.48872949999986,87.48878609999974,87.50091450000036,87.69981459999963,87.68429490000017,87.68431859999964,87.69981459999963,87.69981459999963,87.69981459999963,87.69981459999963,87.75076040000022,n,0.047710700000607176,None,87.75141559999975,87.75182649999988,87.75184640000043,87.7661406999996,88.01728129999992,88.00276829999984,88.00281470000027,control,1,sky,S.bmp,earth,C.bmp,air,T.bmp,23,mismatch,earth,S.bmp,n,0.047710700000607176,1,88.00389300000006,,,,,,,,,,,924528,001,2023-12-06_22h25.27.159,ala-gemma-3-pairs,2023.2.3,59.57806812166584,2023-12-06 22h25.33.130955 +0000,
2,0,2,0,0,0,0,0,24,0,24,0,88.01728129999992,,,,,,,,,,,,,,,,,,,,,,,,,,,88.00523489999978,88.00637360000019,88.0064252000002,88.01728129999992,88.23195209999994,88.20159270000022,88.20162869999967,88.23195209999994,88.23195209999994,88.23195209999994,88.23195209999994,88.25011559999984,n,0.008575200000450423,None,88.25079949999963,88.25123989999975,88.25126120000004,88.26511469999969,88.51542520000021,88.50048189999961,88.50050920000012,control,1,sky,S.bmp,earth,C.bmp,air,T.bmp,24,match1,sky,S.bmp,n,0.008575200000450423,0,88.5011771999998,,,,,,,,,,,924528,001,2023-12-06_22h25.27.159,ala-gemma-3-pairs,2023.2.3,59.57806812166584,2023-12-06 22h25.33.130955 +0000,
