participant,pair,block,trial,match_label,match_shape,trial_type,trial_label,trial_shape,response,RTms,acc
207844,1,1,1,air,T.bmp,match,air,T.bmp,m,4535.746000000017,1
207844,1,1,2,air,T.bmp,mismatch,air,S.bmp,m,366.3683999998284,0
207844,1,1,3,air,T.bmp,mismatch,air,C.bmp,m,231.2077000001409,0
207844,1,1,4,air,T.bmp,match,air,T.bmp,m,231.30609999998345,1
207844,1,1,5,air,T.bmp,match,air,T.bmp,m,200.976399999945,1
207844,1,1,6,air,T.bmp,mismatch,earth,T.bmp,m,204.55539999966277,0
207844,1,1,7,air,T.bmp,mismatch,earth,C.bmp,m,211.68370000032155,0
207844,1,1,8,air,T.bmp,mismatch,earth,T.bmp,m,195.96799999999348,0
207844,1,1,9,air,T.bmp,mismatch,sky,S.bmp,m,243.86440000034779,0
207844,1,1,10,air,T.bmp,match,air,T.bmp,m,215.2249999999185,1
207844,1,1,11,air,T.bmp,match,air,T.bmp,m,198.82270000016433,1
207844,1,1,12,air,T.bmp,match,air,T.bmp,m,179.79000000013912,1
207844,1,1,13,air,T.bmp,mismatch,earth,C.bmp,m,207.66779999985377,0
207844,1,1,14,air,T.bmp,mismatch,sky,T.bmp,m,188.1797999999435,0
207844,1,1,15,air,T.bmp,mismatch,sky,T.bmp,m,186.79290000000037,0
207844,1,1,16,air,T.bmp,mismatch,air,C.bmp,m,194.4023000000925,0
207844,1,1,17,air,T.bmp,match,air,T.bmp,m,220.69710000005216,1
207844,1,1,18,air,T.bmp,match,air,T.bmp,m,184.20830000013663,1
207844,1,1,19,air,T.bmp,match,air,T.bmp,m,177.5937000002159,1
207844,1,1,20,air,T.bmp,match,air,T.bmp,m,188.18240000018704,1
207844,1,1,21,air,T.bmp,mismatch,earth,C.bmp,m,189.18200000007343,0
207844,1,1,22,air,T.bmp,match,air,T.bmp,m,214.3919999998616,1
207844,1,1,23,air,T.bmp,mismatch,sky,C.bmp,m,202.03259999971124,0
207844,1,1,24,air,T.bmp,mismatch,earth,C.bmp,m,193.77129999975296,0
207844,1,1,25,air,T.bmp,match,air,T.bmp,m,189.4827000000987,1
207844,1,1,26,air,T.bmp,mismatch,air,C.bmp,m,188.10369999982868,0
207844,1,1,27,air,T.bmp,match,air,T.bmp,m,204.3946999997388,1
207844,1,1,28,air,T.bmp,match,air,T.bmp,m,157.77040000011766,1
207844,1,1,29,air,T.bmp,mismatch,air,C.bmp,m,177.29180000014819,0
207844,1,1,30,air,T.bmp,mismatch,sky,S.bmp,m,208.20939999975965,0
207844,1,1,31,air,T.bmp,mismatch,sky,S.bmp,m,203.9028999997754,0
207844,1,1,32,air,T.bmp,mismatch,earth,C.bmp,m,181.900499999756,0
207844,1,1,33,air,T.bmp,match,air,T.bmp,m,193.7299000001076,1
207844,1,1,34,air,T.bmp,mismatch,sky,C.bmp,m,209.89159999999177,0
207844,1,1,35,air,T.bmp,mismatch,sky,S.bmp,m,182.03500000026904,0
207844,1,1,36,air,T.bmp,mismatch,air,S.bmp,m,196.85160000017277,0
207844,1,1,37,air,T.bmp,mismatch,sky,T.bmp,m,190.98559999974896,0
207844,1,1,38,air,T.bmp,mismatch,air,S.bmp,m,161.23620000007577,0
207844,1,1,39,air,T.bmp,mismatch,earth,T.bmp,m,191.4718000002722,0
207844,1,1,40,air,T.bmp,mismatch,sky,T.bmp,m,60.38950000038312,0
207844,1,1,41,air,T.bmp,mismatch,sky,S.bmp,m,91.07449999964956,0
207844,1,1,42,air,T.bmp,match,air,T.bmp,m,106.43949999985124,1
207844,1,1,43,air,T.bmp,mismatch,earth,T.bmp,m,57.82189999990805,0
207844,1,1,44,air,T.bmp,match,air,T.bmp,m,64.81340000027558,1
207844,1,1,45,air,T.bmp,match,air,T.bmp,m,48.3328000000256,1
207844,1,1,46,air,T.bmp,mismatch,sky,C.bmp,m,48.76560000002428,0
207844,1,1,47,air,T.bmp,mismatch,earth,C.bmp,m,44.57210000009581,0
207844,1,1,48,air,T.bmp,mismatch,earth,T.bmp,m,34.95459999976447,0
207844,1,1,49,air,T.bmp,mismatch,sky,T.bmp,m,31.322000000272958,0
207844,1,1,50,air,T.bmp,mismatch,air,C.bmp,m,305.478199999925,0
207844,1,1,51,air,T.bmp,mismatch,air,S.bmp,m,21.86110000002372,0
207844,1,1,52,air,T.bmp,mismatch,sky,T.bmp,m,64.60360000028231,0
207844,1,1,53,air,T.bmp,mismatch,earth,T.bmp,m,33.24269999984608,0
207844,1,1,54,air,T.bmp,mismatch,earth,C.bmp,m,25.09799999961615,0
207844,1,1,55,air,T.bmp,mismatch,earth,C.bmp,m,14.34669999980542,0
207844,1,1,56,air,T.bmp,match,air,T.bmp,m,219.40420000009908,1
207844,1,1,57,air,T.bmp,mismatch,sky,S.bmp,m,396.3496999999734,0
207844,1,1,58,air,T.bmp,mismatch,sky,T.bmp,m,102.9662000000826,0
207844,1,1,59,air,T.bmp,mismatch,air,C.bmp,m,199.50440000002345,0
207844,1,1,60,air,T.bmp,match,air,T.bmp,m,920.6278999999996,1
207844,1,2,1,air,T.bmp,mismatch,sky,C.bmp,m,1493.087099999684,0
207844,1,2,2,air,T.bmp,mismatch,air,C.bmp,m,146.09169999994265,0
207844,1,2,3,air,T.bmp,match,air,T.bmp,m,49.72270000007484,1
207844,1,2,4,air,T.bmp,mismatch,sky,C.bmp,m,69.6645000002718,0
207844,1,2,5,air,T.bmp,mismatch,sky,T.bmp,m,50.67370000006122,0
207844,1,2,6,air,T.bmp,match,air,T.bmp,m,33.8237000000845,1
207844,1,2,7,air,T.bmp,mismatch,earth,S.bmp,m,40.74849999960861,0
207844,1,2,8,air,T.bmp,mismatch,sky,C.bmp,m,35.68880000011631,0
207844,1,2,9,air,T.bmp,mismatch,earth,T.bmp,m,27.52929999996922,0
207844,1,2,10,air,T.bmp,mismatch,earth,C.bmp,m,32.20280000005005,0
207844,1,2,11,air,T.bmp,mismatch,sky,T.bmp,m,32.80769999992117,0
207844,1,2,12,air,T.bmp,mismatch,air,C.bmp,m,46.66599999973186,0
207844,1,2,13,air,T.bmp,match,air,T.bmp,m,40.86920000008831,1
207844,1,2,14,air,T.bmp,mismatch,earth,T.bmp,m,16.27940000025773,0
207844,1,2,15,air,T.bmp,match,air,T.bmp,m,44.52599999967788,1
207844,1,2,16,air,T.bmp,mismatch,earth,T.bmp,m,52.63209999975515,0
207844,1,2,17,air,T.bmp,match,air,T.bmp,m,12.14619999973365,1
207844,1,2,18,air,T.bmp,mismatch,sky,S.bmp,m,42.24199999998745,0
207844,1,2,19,air,T.bmp,mismatch,air,C.bmp,m,29.52219999997396,0
207844,1,2,20,air,T.bmp,match,air,T.bmp,m,50.06800000001021,1
207844,1,2,21,air,T.bmp,mismatch,earth,C.bmp,m,25.70399999967776,0
207844,1,2,22,air,T.bmp,match,air,T.bmp,m,29.31360000002314,1
207844,1,2,23,air,T.bmp,mismatch,earth,C.bmp,m,16.81839999992007,0
207844,1,2,24,air,T.bmp,mismatch,sky,S.bmp,m,38.4582000001501,0
207844,1,2,25,air,T.bmp,mismatch,earth,S.bmp,m,28.81329999991067,0
207844,1,2,26,air,T.bmp,mismatch,earth,C.bmp,m,54.53589999979158,0
207844,1,2,27,air,T.bmp,mismatch,sky,C.bmp,m,40.06780000008803,0
207844,1,2,28,air,T.bmp,mismatch,earth,C.bmp,m,22.20630000010715,0
207844,1,2,29,air,T.bmp,mismatch,sky,C.bmp,m,40.27050000013332,0
207844,1,2,30,air,T.bmp,mismatch,sky,S.bmp,m,35.28050000022631,0
207844,1,2,31,air,T.bmp,mismatch,air,S.bmp,m,39.69629999983226,0
207844,1,2,32,air,T.bmp,mismatch,sky,S.bmp,m,34.76349999982631,0
207844,1,2,33,air,T.bmp,mismatch,sky,S.bmp,m,53.19469999994908,0
207844,1,2,34,air,T.bmp,mismatch,air,S.bmp,m,42.9415999997218,0
207844,1,2,35,air,T.bmp,match,air,T.bmp,m,58.58279999984006,1
207844,1,2,36,air,T.bmp,mismatch,earth,S.bmp,m,51.06769999974858,0
207844,1,2,37,air,T.bmp,match,air,T.bmp,m,49.77559999997538,1
207844,1,2,38,air,T.bmp,mismatch,air,S.bmp,m,51.7558999999892,0
207844,1,2,39,air,T.bmp,mismatch,earth,S.bmp,m,11.20909999963259,0
207844,1,2,40,air,T.bmp,mismatch,air,C.bmp,m,45.39109999996071,0
207844,1,2,41,air,T.bmp,match,air,T.bmp,m,49.04250000026877,1
207844,1,2,42,air,T.bmp,match,air,T.bmp,m,57.40669999977399,1
207844,1,2,43,air,T.bmp,mismatch,air,S.bmp,m,46.94820000031541,0
207844,1,2,44,air,T.bmp,mismatch,air,S.bmp,m,78.11609999998836,0
207844,1,2,45,air,T.bmp,match,air,T.bmp,m,64.24359999982698,1
207844,1,2,46,air,T.bmp,mismatch,earth,T.bmp,m,52.67210000010891,0
207844,1,2,47,air,T.bmp,mismatch,air,C.bmp,m,42.82740000007834,0
207844,1,2,48,air,T.bmp,match,air,T.bmp,m,71.59319999982472,1
207844,1,2,49,air,T.bmp,match,air,T.bmp,m,62.44539999988774,1
207844,1,2,50,air,T.bmp,match,air,T.bmp,m,74.57119999980932,1
207844,1,2,51,air,T.bmp,match,air,T.bmp,m,60.67639999992025,1
207844,1,2,52,air,T.bmp,match,air,T.bmp,m,360.5757000000267,1
207844,1,2,53,air,T.bmp,mismatch,air,C.bmp,m,37.10869999986244,0
207844,1,2,54,air,T.bmp,mismatch,sky,S.bmp,m,43.17760000003545,0
207844,1,2,55,air,T.bmp,match,air,T.bmp,m,59.37029999995502,1
207844,1,2,56,air,T.bmp,match,air,T.bmp,m,72.73229999964315,1
207844,1,2,57,air,T.bmp,mismatch,air,C.bmp,m,62.285299999985,0
207844,1,2,58,air,T.bmp,match,air,T.bmp,m,408.0160000003161,1
207844,1,2,59,air,T.bmp,mismatch,sky,C.bmp,m,273.5742999998365,0
207844,1,2,60,air,T.bmp,mismatch,earth,T.bmp,m,1166.1957999999686,0
207844,2,1,1,earth,S.bmp,match,earth,S.bmp,m,1041.3727000000108,1
207844,2,1,2,earth,S.bmp,match,earth,S.bmp,m,172.87100000021385,1
207844,2,1,3,earth,S.bmp,mismatch,air,T.bmp,m,33.63910000007308,0
207844,2,1,4,earth,S.bmp,mismatch,sky,T.bmp,m,66.87569999985499,0
207844,2,1,5,earth,S.bmp,mismatch,earth,C.bmp,m,44.74210000034873,0
207844,2,1,6,earth,S.bmp,match,earth,S.bmp,m,46.6630000000805,1
207844,2,1,7,earth,S.bmp,match,earth,S.bmp,m,35.87620000007519,1
207844,2,1,8,earth,S.bmp,match,earth,S.bmp,m,16.02309999998397,1
207844,2,1,9,earth,S.bmp,mismatch,air,T.bmp,m,51.09290000018518,0
207844,2,1,10,earth,S.bmp,mismatch,earth,T.bmp,m,33.21310000001176,0
207844,2,1,11,earth,S.bmp,mismatch,sky,C.bmp,m,49.07069999990199,0
207844,2,1,12,earth,S.bmp,match,earth,S.bmp,m,46.36229999960051,1
207844,2,1,13,earth,S.bmp,mismatch,air,T.bmp,m,36.02220000038869,0
207844,2,1,14,earth,S.bmp,mismatch,sky,T.bmp,m,36.1456000000544,0
207844,2,1,15,earth,S.bmp,mismatch,air,C.bmp,m,29.25400000003719,0
207844,2,1,16,earth,S.bmp,mismatch,earth,T.bmp,m,38.03090000019438,0
207844,2,1,17,earth,S.bmp,mismatch,air,S.bmp,m,36.66309999971418,0
207844,2,1,18,earth,S.bmp,match,earth,S.bmp,m,37.48799999993935,1
207844,2,1,19,earth,S.bmp,mismatch,air,S.bmp,m,38.77760000023045,0
207844,2,1,20,earth,S.bmp,mismatch,sky,T.bmp,m,26.45759999995789,0
207844,2,1,21,earth,S.bmp,mismatch,sky,C.bmp,m,37.80929999993532,0
207844,2,1,22,earth,S.bmp,mismatch,sky,T.bmp,m,36.02740000042104,0
207844,2,1,23,earth,S.bmp,mismatch,air,S.bmp,m,51.73729999978604,0
207844,2,1,24,earth,S.bmp,match,earth,S.bmp,m,42.16529999985141,1
207844,2,1,25,earth,S.bmp,match,earth,S.bmp,m,62.70219999987603,1
207844,2,1,26,earth,S.bmp,match,earth,S.bmp,m,35.62440000041533,1
207844,2,1,27,earth,S.bmp,match,earth,S.bmp,m,30.10739999990619,1
207844,2,1,28,earth,S.bmp,mismatch,earth,C.bmp,m,63.705900000059046,0
207844,2,1,29,earth,S.bmp,mismatch,sky,T.bmp,m,46.64479999973991,0
207844,2,1,30,earth,S.bmp,match,earth,S.bmp,m,43.90170000033322,1
207844,2,1,31,earth,S.bmp,mismatch,sky,T.bmp,m,45.61620000004041,0
207844,2,1,32,earth,S.bmp,match,earth,S.bmp,m,47.12109999991298,1
207844,2,1,33,earth,S.bmp,mismatch,air,T.bmp,m,43.59879999992699,0
207844,2,1,34,earth,S.bmp,match,earth,S.bmp,m,40.02960000025268,1
207844,2,1,35,earth,S.bmp,mismatch,earth,T.bmp,m,42.02489999988756,0
207844,2,1,36,earth,S.bmp,mismatch,sky,C.bmp,m,41.13430000006701,0
207844,2,1,37,earth,S.bmp,mismatch,sky,S.bmp,m,69.84529999999722,0
207844,2,1,38,earth,S.bmp,mismatch,sky,S.bmp,m,62.59890000001178,0
207844,2,1,39,earth,S.bmp,mismatch,earth,T.bmp,m,49.63749999978972,0
207844,2,1,40,earth,S.bmp,mismatch,air,T.bmp,m,59.30850000004284,0
207844,2,1,41,earth,S.bmp,mismatch,earth,C.bmp,m,53.68899999984933,0
207844,2,1,42,earth,S.bmp,match,earth,S.bmp,m,68.71579999960886,1
207844,2,1,43,earth,S.bmp,mismatch,earth,C.bmp,m,61.57310000025973,0
207844,2,1,44,earth,S.bmp,match,earth,S.bmp,m,68.34029999981794,1
207844,2,1,45,earth,S.bmp,match,earth,S.bmp,m,58.94760000001042,1
207844,2,1,46,earth,S.bmp,mismatch,earth,C.bmp,m,59.05679999978019,0
207844,2,1,47,earth,S.bmp,match,earth,S.bmp,m,51.48770000005243,1
207844,2,1,48,earth,S.bmp,mismatch,air,C.bmp,m,39.69920000008642,0
207844,2,1,49,earth,S.bmp,mismatch,air,C.bmp,m,55.06500000001324,0
207844,2,1,50,earth,S.bmp,mismatch,sky,C.bmp,m,37.83049999992727,0
207844,2,1,51,earth,S.bmp,mismatch,air,T.bmp,m,40.0657999998657,0
207844,2,1,52,earth,S.bmp,mismatch,air,S.bmp,m,59.53360000012253,0
207844,2,1,53,earth,S.bmp,mismatch,sky,T.bmp,m,48.28120000001945,0
207844,2,1,54,earth,S.bmp,match,earth,S.bmp,m,46.25130000022182,1
207844,2,1,55,earth,S.bmp,mismatch,sky,S.bmp,m,56.60110000007989,0
207844,2,1,56,earth,S.bmp,mismatch,earth,T.bmp,m,36.91580000031536,0
207844,2,1,57,earth,S.bmp,mismatch,sky,S.bmp,m,25.63910000026226,0
207844,2,1,58,earth,S.bmp,mismatch,earth,T.bmp,m,74.37609999988126,0
207844,2,1,59,earth,S.bmp,match,earth,S.bmp,m,382.5704000000769,1
207844,2,1,60,earth,S.bmp,mismatch,earth,T.bmp,m,1698.2626999997592,0
207844,2,2,1,earth,S.bmp,mismatch,air,S.bmp,m,183.93349999996644,0
207844,2,2,2,earth,S.bmp,mismatch,air,C.bmp,m,434.06899999990856,0
207844,2,2,3,earth,S.bmp,mismatch,earth,C.bmp,m,47.08139999956984,0
207844,2,2,4,earth,S.bmp,match,earth,S.bmp,m,64.19710000000123,1
207844,2,2,5,earth,S.bmp,mismatch,earth,T.bmp,m,65.90560000040568,0
207844,2,2,6,earth,S.bmp,mismatch,air,S.bmp,m,45.62540000006265,0
207844,2,2,7,earth,S.bmp,mismatch,air,S.bmp,m,71.78799999974217,0
207844,2,2,8,earth,S.bmp,match,earth,S.bmp,m,45.93800000020565,1
207844,2,2,9,earth,S.bmp,mismatch,air,S.bmp,m,53.0111000002762,0
207844,2,2,10,earth,S.bmp,mismatch,air,C.bmp,m,37.63040000012552,0
207844,2,2,11,earth,S.bmp,mismatch,air,C.bmp,m,46.34690000011687,0
207844,2,2,12,earth,S.bmp,match,earth,S.bmp,m,61.65779999992082,1
207844,2,2,13,earth,S.bmp,mismatch,sky,T.bmp,m,54.89289999968605,0
207844,2,2,14,earth,S.bmp,mismatch,sky,T.bmp,m,60.71990000009464,0
207844,2,2,15,earth,S.bmp,mismatch,sky,T.bmp,m,54.97210000021368,0
207844,2,2,16,earth,S.bmp,mismatch,earth,T.bmp,m,30.16530000013517,0
207844,2,2,17,earth,S.bmp,mismatch,sky,S.bmp,m,48.47500000005311,0
207844,2,2,18,earth,S.bmp,mismatch,sky,T.bmp,m,47.44729999993069,0
207844,2,2,19,earth,S.bmp,mismatch,sky,C.bmp,m,46.55460000003586,0
207844,2,2,20,earth,S.bmp,mismatch,sky,T.bmp,m,48.34730000038689,0
207844,2,2,21,earth,S.bmp,mismatch,air,T.bmp,m,32.59849999994912,0
207844,2,2,22,earth,S.bmp,mismatch,air,T.bmp,m,68.54500000008557,0
207844,2,2,23,earth,S.bmp,mismatch,air,T.bmp,m,37.18509999998787,0
207844,2,2,24,earth,S.bmp,mismatch,earth,C.bmp,m,40.63450000012381,0
207844,2,2,25,earth,S.bmp,match,earth,S.bmp,m,63.454900000124326,1
207844,2,2,26,earth,S.bmp,match,earth,S.bmp,m,87.90940000017144,1
207844,2,2,27,earth,S.bmp,mismatch,air,S.bmp,m,40.95409999990807,0
207844,2,2,28,earth,S.bmp,mismatch,air,T.bmp,m,79.68190000019604,0
207844,2,2,29,earth,S.bmp,match,earth,S.bmp,m,46.55730000013136,1
207844,2,2,30,earth,S.bmp,match,earth,S.bmp,m,73.8296999998056,1
207844,2,2,31,earth,S.bmp,match,earth,S.bmp,m,48.30730000003314,1
207844,2,2,32,earth,S.bmp,match,earth,S.bmp,m,58.86439999994763,1
207844,2,2,33,earth,S.bmp,match,earth,S.bmp,m,53.91159999999218,1
207844,2,2,34,earth,S.bmp,mismatch,air,T.bmp,m,39.35360000014043,0
207844,2,2,35,earth,S.bmp,match,earth,S.bmp,m,42.34299999961877,1
207844,2,2,36,earth,S.bmp,match,earth,S.bmp,m,51.42620000015086,1
207844,2,2,37,earth,S.bmp,match,earth,S.bmp,m,47.33829999986483,1
207844,2,2,38,earth,S.bmp,match,earth,S.bmp,m,48.30069999979969,1
207844,2,2,39,earth,S.bmp,mismatch,air,C.bmp,m,49.07460000003993,0
207844,2,2,40,earth,S.bmp,mismatch,earth,T.bmp,m,45.89210000040111,0
207844,2,2,41,earth,S.bmp,mismatch,earth,C.bmp,m,62.9399999997986,0
207844,2,2,42,earth,S.bmp,mismatch,air,C.bmp,m,54.56660000027114,0
207844,2,2,43,earth,S.bmp,match,earth,S.bmp,m,42.15220000014597,1
207844,2,2,44,earth,S.bmp,mismatch,sky,S.bmp,m,36.79420000025857,0
207844,2,2,45,earth,S.bmp,mismatch,air,T.bmp,m,22.15500000011161,0
207844,2,2,46,earth,S.bmp,mismatch,sky,C.bmp,m,50.15349999985119,0
207844,2,2,47,earth,S.bmp,mismatch,air,C.bmp,m,60.37710000009611,0
207844,2,2,48,earth,S.bmp,mismatch,sky,T.bmp,m,43.26679999985572,0
207844,2,2,49,earth,S.bmp,mismatch,air,S.bmp,m,20.83900000025096,0
207844,2,2,50,earth,S.bmp,mismatch,sky,T.bmp,m,42.07560000031662,0
207844,2,2,51,earth,S.bmp,match,earth,S.bmp,m,44.64180000013584,1
207844,2,2,52,earth,S.bmp,mismatch,air,C.bmp,m,49.01340000014898,0
207844,2,2,53,earth,S.bmp,match,earth,S.bmp,m,49.50300000018615,1
207844,2,2,54,earth,S.bmp,mismatch,air,C.bmp,m,54.16719999993802,0
207844,2,2,55,earth,S.bmp,match,earth,S.bmp,m,53.78860000018903,1
207844,2,2,56,earth,S.bmp,mismatch,sky,S.bmp,m,31.42009999965012,0
207844,2,2,57,earth,S.bmp,match,earth,S.bmp,m,28.94459999970422,1
207844,2,2,58,earth,S.bmp,mismatch,sky,T.bmp,m,36.71469999972032,0
207844,2,2,59,earth,S.bmp,mismatch,earth,T.bmp,m,631.5131999999721,0
207844,2,2,60,earth,S.bmp,match,earth,S.bmp,m,382.4008000001413,1
207844,3,1,1,sky,C.bmp,mismatch,earth,S.bmp,m,1476.7605999995794,0
207844,3,1,2,sky,C.bmp,mismatch,earth,S.bmp,m,62.41319999980987,0
207844,3,1,3,sky,C.bmp,mismatch,earth,T.bmp,m,33.14399999999296,0
207844,3,1,4,sky,C.bmp,mismatch,earth,S.bmp,m,44.06389999985549,0
207844,3,1,5,sky,C.bmp,mismatch,air,S.bmp,m,43.17070000024614,0
207844,3,1,6,sky,C.bmp,match,sky,C.bmp,m,37.68689999969865,1
207844,3,1,7,sky,C.bmp,match,sky,C.bmp,m,12.36199999993914,1
207844,3,1,8,sky,C.bmp,mismatch,air,T.bmp,m,23.24859999998807,0
207844,3,1,9,sky,C.bmp,match,sky,C.bmp,m,41.43520000025091,1
207844,3,1,10,sky,C.bmp,mismatch,air,C.bmp,m,41.58250000000407,0
207844,3,1,11,sky,C.bmp,mismatch,earth,S.bmp,m,27.68869999999879,0
207844,3,1,12,sky,C.bmp,match,sky,C.bmp,m,47.60170000008656,1
207844,3,1,13,sky,C.bmp,mismatch,air,T.bmp,m,41.26960000030522,0
207844,3,1,14,sky,C.bmp,mismatch,air,C.bmp,m,36.94240000004356,0
207844,3,1,15,sky,C.bmp,mismatch,sky,S.bmp,m,18.6124000001655,0
207844,3,1,16,sky,C.bmp,mismatch,earth,T.bmp,m,33.08960000003935,0
207844,3,1,17,sky,C.bmp,mismatch,earth,T.bmp,m,58.65029999995386,0
207844,3,1,18,sky,C.bmp,mismatch,earth,T.bmp,m,47.9365000001053,0
207844,3,1,19,sky,C.bmp,mismatch,air,C.bmp,m,56.7455999998856,0
207844,3,1,20,sky,C.bmp,mismatch,air,T.bmp,m,72.37549999990733,0
207844,3,1,21,sky,C.bmp,mismatch,sky,T.bmp,m,38.08610000032786,0
207844,3,1,22,sky,C.bmp,mismatch,earth,S.bmp,m,46.11620000014227,0
207844,3,1,23,sky,C.bmp,match,sky,C.bmp,m,45.50749999998516,1
207844,3,1,24,sky,C.bmp,match,sky,C.bmp,m,58.87530000018159,1
207844,3,1,25,sky,C.bmp,mismatch,sky,T.bmp,m,59.14910000001328,0
207844,3,1,26,sky,C.bmp,mismatch,earth,C.bmp,m,49.34360000015658,0
207844,3,1,27,sky,C.bmp,match,sky,C.bmp,m,55.27149999988978,1
207844,3,1,28,sky,C.bmp,mismatch,air,T.bmp,m,43.50080000040179,0
207844,3,1,29,sky,C.bmp,match,sky,C.bmp,m,57.52910000001066,1
207844,3,1,30,sky,C.bmp,mismatch,sky,T.bmp,m,47.35000000027867,0
207844,3,1,31,sky,C.bmp,match,sky,C.bmp,m,49.99429999998028,1
207844,3,1,32,sky,C.bmp,match,sky,C.bmp,m,64.88619999981893,1
207844,3,1,33,sky,C.bmp,mismatch,air,S.bmp,m,48.8390000000436,0
207844,3,1,34,sky,C.bmp,match,sky,C.bmp,m,53.2628000000841,1
207844,3,1,35,sky,C.bmp,mismatch,air,C.bmp,m,45.89620000024297,0
207844,3,1,36,sky,C.bmp,mismatch,sky,S.bmp,m,33.83549999989554,0
207844,3,1,37,sky,C.bmp,match,sky,C.bmp,m,66.46760000012364,1
207844,3,1,38,sky,C.bmp,mismatch,air,T.bmp,m,61.2688999999591,0
207844,3,1,39,sky,C.bmp,match,sky,C.bmp,m,39.3355999999585,1
207844,3,1,40,sky,C.bmp,mismatch,sky,T.bmp,m,47.86220000005414,0
207844,3,1,41,sky,C.bmp,mismatch,sky,T.bmp,m,47.10890000023937,0
207844,3,1,42,sky,C.bmp,mismatch,sky,S.bmp,m,51.49279999977807,0
207844,3,1,43,sky,C.bmp,match,sky,C.bmp,m,57.82809999982419,1
207844,3,1,44,sky,C.bmp,mismatch,air,C.bmp,m,17.0882000002166,0
207844,3,1,45,sky,C.bmp,mismatch,air,C.bmp,m,28.26499999991938,0
207844,3,1,46,sky,C.bmp,match,sky,C.bmp,m,44.43140000012136,1
207844,3,1,47,sky,C.bmp,match,sky,C.bmp,m,45.35660000010466,1
207844,3,1,48,sky,C.bmp,mismatch,air,S.bmp,m,46.10699999966528,0
207844,3,1,49,sky,C.bmp,mismatch,sky,T.bmp,m,44.83320000008461,0
207844,3,1,50,sky,C.bmp,match,sky,C.bmp,m,66.99070000013307,1
207844,3,1,51,sky,C.bmp,mismatch,sky,S.bmp,m,51.95319999984349,0
207844,3,1,52,sky,C.bmp,mismatch,sky,T.bmp,m,50.52900000009686,0
207844,3,1,53,sky,C.bmp,mismatch,air,T.bmp,m,36.17030000032173,0
207844,3,1,54,sky,C.bmp,match,sky,C.bmp,m,43.94159999992553,1
207844,3,1,55,sky,C.bmp,mismatch,air,C.bmp,m,57.20209999981307,0
207844,3,1,56,sky,C.bmp,mismatch,air,S.bmp,m,47.44320000008884,0
207844,3,1,57,sky,C.bmp,mismatch,air,C.bmp,m,54.03149999983725,0
207844,3,1,58,sky,C.bmp,match,sky,C.bmp,m,36.66990000010628,1
207844,3,1,59,sky,C.bmp,match,sky,C.bmp,m,30.87010000035661,1
207844,3,1,60,sky,C.bmp,mismatch,air,T.bmp,m,72.7681000003031,0
207844,3,2,1,sky,C.bmp,match,sky,C.bmp,m,200.4773000003297,1
207844,3,2,2,sky,C.bmp,match,sky,C.bmp,m,346.35720000005676,1
207844,3,2,3,sky,C.bmp,mismatch,air,S.bmp,m,32.22319999986212,0
207844,3,2,4,sky,C.bmp,match,sky,C.bmp,m,37.38260000000082,1
207844,3,2,5,sky,C.bmp,mismatch,sky,T.bmp,m,15.3866000000562,0
207844,3,2,6,sky,C.bmp,mismatch,air,C.bmp,m,38.85690000015529,0
207844,3,2,7,sky,C.bmp,match,sky,C.bmp,m,28.15639999971608,1
207844,3,2,8,sky,C.bmp,mismatch,air,T.bmp,m,42.96890000023268,0
207844,3,2,9,sky,C.bmp,mismatch,sky,T.bmp,m,49.51459999983854,0
207844,3,2,10,sky,C.bmp,mismatch,air,T.bmp,m,19.70520000031683,0
207844,3,2,11,sky,C.bmp,mismatch,sky,T.bmp,m,28.61050000001341,0
207844,3,2,12,sky,C.bmp,mismatch,sky,T.bmp,m,50.95709999977771,0
207844,3,2,13,sky,C.bmp,mismatch,earth,T.bmp,m,49.53320000004169,0
207844,3,2,14,sky,C.bmp,match,sky,C.bmp,m,53.91790000021501,1
207844,3,2,15,sky,C.bmp,mismatch,sky,S.bmp,m,49.44489999979851,0
207844,3,2,16,sky,C.bmp,mismatch,earth,T.bmp,m,46.1499999996704,0
207844,3,2,17,sky,C.bmp,mismatch,earth,T.bmp,m,37.51899999997477,0
207844,3,2,18,sky,C.bmp,mismatch,sky,S.bmp,m,28.34679999978107,0
207844,3,2,19,sky,C.bmp,match,sky,C.bmp,m,43.89739999987796,1
207844,3,2,20,sky,C.bmp,match,sky,C.bmp,m,48.23880000003555,1
207844,3,2,21,sky,C.bmp,mismatch,earth,C.bmp,m,80.49280000022918,0
207844,3,2,22,sky,C.bmp,match,sky,C.bmp,m,72.48220000019501,1
207844,3,2,23,sky,C.bmp,match,sky,C.bmp,m,61.7326999999932,1
207844,3,2,24,sky,C.bmp,match,sky,C.bmp,m,48.53910000019823,1
207844,3,2,25,sky,C.bmp,mismatch,earth,C.bmp,m,59.05140000004394,0
207844,3,2,26,sky,C.bmp,match,sky,C.bmp,m,46.56969999996363,1
207844,3,2,27,sky,C.bmp,mismatch,sky,T.bmp,m,52.93220000021392,0
207844,3,2,28,sky,C.bmp,mismatch,earth,S.bmp,m,50.63429999972868,0
207844,3,2,29,sky,C.bmp,match,sky,C.bmp,m,69.50439999991431,1
207844,3,2,30,sky,C.bmp,mismatch,sky,S.bmp,m,42.71959999960018,0
207844,3,2,31,sky,C.bmp,mismatch,earth,T.bmp,m,52.43159999963609,0
207844,3,2,32,sky,C.bmp,match,sky,C.bmp,m,44.56209999989369,1
207844,3,2,33,sky,C.bmp,mismatch,earth,C.bmp,m,36.33679999984451,0
207844,3,2,34,sky,C.bmp,match,sky,C.bmp,m,33.34029999996346,1
207844,3,2,35,sky,C.bmp,mismatch,air,S.bmp,m,60.742000000118416,0
207844,3,2,36,sky,C.bmp,mismatch,earth,C.bmp,m,48.90260000001945,0
207844,3,2,37,sky,C.bmp,mismatch,air,S.bmp,m,63.85150000005524,0
207844,3,2,38,sky,C.bmp,mismatch,sky,S.bmp,m,53.18149999993693,0
207844,3,2,39,sky,C.bmp,match,sky,C.bmp,m,42.81529999980194,1
207844,3,2,40,sky,C.bmp,mismatch,air,C.bmp,m,49.90439999983209,0
207844,3,2,41,sky,C.bmp,mismatch,earth,S.bmp,m,60.55749999995896,0
207844,3,2,42,sky,C.bmp,mismatch,air,S.bmp,m,57.94419999983802,0
207844,3,2,43,sky,C.bmp,mismatch,air,T.bmp,m,47.35570000002553,0
207844,3,2,44,sky,C.bmp,mismatch,sky,T.bmp,m,61.73480000006748,0
207844,3,2,45,sky,C.bmp,mismatch,sky,S.bmp,m,38.27629999977944,0
207844,3,2,46,sky,C.bmp,mismatch,earth,S.bmp,m,54.34009999999034,0
207844,3,2,47,sky,C.bmp,mismatch,sky,T.bmp,m,49.07349999984944,0
207844,3,2,48,sky,C.bmp,match,sky,C.bmp,m,65.60110000009445,1
207844,3,2,49,sky,C.bmp,mismatch,earth,C.bmp,m,61.15619999991395,0
207844,3,2,50,sky,C.bmp,mismatch,air,S.bmp,m,62.27269999999407,0
207844,3,2,51,sky,C.bmp,mismatch,air,C.bmp,m,51.81450000009136,0
207844,3,2,52,sky,C.bmp,match,sky,C.bmp,m,28.63039999965622,1
207844,3,2,53,sky,C.bmp,match,sky,C.bmp,m,168.56219999999666,1
207844,3,2,54,sky,C.bmp,mismatch,earth,S.bmp,m,71.20489999988422,0
207844,3,2,55,sky,C.bmp,match,sky,C.bmp,m,44.06759999983478,1
207844,3,2,56,sky,C.bmp,mismatch,air,C.bmp,m,45.06539999965753,0
207844,3,2,57,sky,C.bmp,mismatch,sky,S.bmp,m,51.14749999984269,0
207844,3,2,58,sky,C.bmp,mismatch,earth,S.bmp,m,42.86469999988185,0
207844,3,2,59,sky,C.bmp,match,sky,C.bmp,m,162.91159999991578,1
207844,3,2,60,sky,C.bmp,mismatch,air,C.bmp,m,365.6919000000016,0
